Participant ID,Trial Number,Response,Correctness,Start Timestamp,End Timestamp,Reaction Time,Sample Number,Sample Order,Sample Time,Comparison Time,Condition,Path,Foil
1,1,left,False,2023-09-18 08:29:13.521,2023-09-18 08:29:21.041,7.52,28,right,7000,14000,H,"[(0, 4), (0, 3), (1, 3), (1, 2), (0, 2), (0, 1), (1, 1), (1, 0), (3, 1)]","[(0, 4), (0, 3), (1, 3), (1, 2), (0, 2), (0, 1), (1, 1), (2, 1), (3, 1)]"
1,2,right,False,2023-09-18 08:29:38.076,2023-09-18 08:29:45.106,7.03,43,left,7000,14000,H,"[(1, 3), (2, 3), (2, 2), (3, 2), (3, 3), (4, 3), (4, 4), (3, 4), (2, 4)]","[(1, 3), (2, 3), (2, 2), (3, 2), (4, 2), (4, 3), (4, 4), (3, 4), (2, 4)]"
1,3,right,True,2023-09-18 08:30:02.142,2023-09-18 08:30:06.916,4.774,88,right,7000,14000,H,"[(3, 4), (4, 4), (4, 3), (3, 3), (3, 2), (2, 2), (2, 1), (3, 1), (0, 3)]","[(3, 4), (4, 4), (4, 3), (4, 2), (3, 2), (2, 2), (2, 1), (3, 1), (0, 3)]"
1,4,left,True,2023-09-18 08:30:23.950,2023-09-18 08:30:33.991,10.041,24,left,7000,14000,H,"[(1, 4), (2, 4), (2, 3), (1, 3), (1, 2), (2, 2), (2, 1), (3, 1), (3, 0)]","[(1, 4), (2, 4), (2, 3), (1, 3), (1, 2), (1, 1), (2, 1), (3, 1), (3, 0)]"
1,5,right,True,2023-09-18 08:30:51.026,2023-09-18 08:31:02.624,11.598,31,right,7000,14000,H,"[(3, 2), (2, 2), (2, 3), (3, 3), (3, 4), (4, 4), (4, 3), (4, 2), (0, 4)]","[(3, 2), (2, 2), (2, 3), (2, 4), (3, 4), (4, 4), (4, 3), (4, 2), (0, 4)]"
1,6,left,True,2023-09-18 08:31:19.658,2023-09-18 08:31:25.934,6.276,64,left,7000,14000,VH,"[(4, 0), (4, 1), (3, 1), (3, 2), (4, 2), (4, 3), (3, 3), (3, 4), (0, 2)]","[(4, 0), (4, 1), (3, 1), (3, 2), (4, 2), (4, 3), (3, 3), (2, 3), (0, 2)]"
1,7,left,True,2023-09-18 08:31:42.967,2023-09-18 08:31:50.943,7.976,69,left,7000,14000,VH,"[(3, 4), (2, 4), (2, 3), (1, 3), (1, 2), (2, 2), (2, 1), (3, 1), (0, 2)]","[(3, 4), (2, 4), (1, 4), (1, 3), (1, 2), (2, 2), (2, 1), (3, 1), (0, 2)]"
1,8,right,True,2023-09-18 08:32:07.978,2023-09-18 08:32:13.218,5.24,79,right,7000,14000,VH,"[(1, 1), (1, 2), (2, 2), (2, 1), (3, 1), (3, 2), (4, 2), (4, 1), (0, 4)]","[(1, 1), (1, 2), (2, 2), (2, 1), (3, 1), (3, 2), (4, 2), (4, 3), (0, 4)]"
1,9,right,False,2023-09-18 08:32:30.254,2023-09-18 08:32:39.550,9.296,62,left,7000,14000,VH,"[(1, 0), (2, 0), (2, 1), (3, 1), (3, 2), (2, 2), (2, 3), (2, 4), (0, 1)]","[(1, 0), (2, 0), (3, 0), (3, 1), (3, 2), (2, 2), (2, 3), (2, 4), (0, 1)]"
1,10,left,True,2023-09-18 08:32:56.585,2023-09-18 08:33:07.715,11.13,49,left,7000,14000,VH,"[(0, 0), (0, 1), (1, 1), (1, 0), (2, 0), (2, 1), (3, 1), (3, 2), (1, 3)]","[(0, 0), (0, 1), (1, 1), (1, 0), (2, 0), (3, 0), (3, 1), (3, 2), (1, 3)]"
1,11,right,True,2023-09-18 08:33:24.751,2023-09-18 08:33:31.114,6.363,29,right,7000,14000,V,"[(2, 2), (1, 2), (1, 1), (2, 1), (2, 0), (3, 0), (3, 1), (3, 2), (4, 4)]","[(2, 2), (1, 2), (1, 1), (1, 0), (2, 0), (3, 0), (3, 1), (3, 2), (4, 4)]"
1,12,right,False,2023-09-18 08:33:48.148,2023-09-18 08:34:00.124,11.976,21,left,7000,14000,V,"[(0, 4), (0, 3), (1, 3), (1, 2), (2, 2), (2, 1), (1, 1), (0, 1), (3, 1)]","[(0, 4), (0, 3), (0, 2), (1, 2), (2, 2), (2, 1), (1, 1), (0, 1), (3, 1)]"
1,13,right,True,2023-09-18 08:34:17.158,2023-09-18 08:34:23.210,6.052,27,right,7000,14000,V,"[(0, 4), (0, 3), (1, 3), (1, 2), (2, 2), (2, 1), (1, 1), (1, 0), (4, 0)]","[(0, 4), (0, 3), (0, 2), (1, 2), (2, 2), (2, 1), (1, 1), (1, 0), (4, 0)]"
1,14,left,True,2023-09-18 08:34:40.246,2023-09-18 08:34:47.364,7.118,57,left,7000,14000,V,"[(4, 1), (4, 2), (3, 2), (3, 3), (2, 3), (2, 2), (1, 2), (0, 2), (0, 3)]","[(4, 1), (4, 2), (4, 3), (3, 3), (2, 3), (2, 2), (1, 2), (0, 2), (0, 3)]"
1,15,left,True,2023-09-18 08:35:04.400,2023-09-18 08:35:11.351,6.951,85,left,7000,14000,V,"[(2, 1), (2, 0), (3, 0), (3, 1), (4, 1), (4, 2), (3, 2), (2, 2), (4, 3)]","[(2, 1), (2, 0), (3, 0), (4, 0), (4, 1), (4, 2), (3, 2), (2, 2), (4, 3)]"
1,16,right,True,2023-09-18 08:40:50.823,2023-09-18 08:41:00.008,9.185,6,right,7000,14000,H,"[(4, 4), (4, 3), (3, 3), (3, 2), (2, 2), (2, 3), (1, 3), (1, 2), (1, 1)]","[(4, 4), (4, 3), (4, 2), (3, 2), (2, 2), (2, 3), (1, 3), (1, 2), (1, 1)]"
1,17,left,True,2023-09-18 08:41:17.043,2023-09-18 08:41:23.349,6.306,38,left,7000,14000,H,"[(0, 0), (1, 0), (1, 1), (2, 1), (2, 2), (1, 2), (1, 3), (1, 4), (4, 2)]","[(0, 0), (1, 0), (2, 0), (2, 1), (2, 2), (1, 2), (1, 3), (1, 4), (4, 2)]"
1,18,right,True,2023-09-18 08:41:40.385,2023-09-18 08:41:46.125,5.74,82,right,7000,14000,H,"[(1, 0), (1, 1), (2, 1), (2, 0), (3, 0), (3, 1), (4, 1), (4, 0), (0, 3)]","[(1, 0), (1, 1), (2, 1), (2, 0), (3, 0), (3, 1), (4, 1), (4, 2), (0, 3)]"
1,19,right,False,2023-09-18 08:42:03.160,2023-09-18 08:42:07.591,4.431,14,left,7000,14000,H,"[(0, 3), (0, 4), (1, 4), (1, 3), (2, 3), (2, 2), (3, 2), (3, 3), (0, 0)]","[(0, 3), (0, 4), (1, 4), (2, 4), (2, 3), (2, 2), (3, 2), (3, 3), (0, 0)]"
1,20,left,False,2023-09-18 08:42:24.628,2023-09-18 08:42:32.934,8.306,32,right,7000,14000,H,"[(0, 4), (1, 4), (1, 3), (2, 3), (2, 4), (3, 4), (3, 3), (3, 2), (4, 2)]","[(0, 4), (1, 4), (1, 3), (2, 3), (2, 4), (3, 4), (3, 3), (4, 3), (4, 2)]"
1,21,right,True,2023-09-18 08:42:49.969,2023-09-18 08:42:53.179,3.21,11,right,7000,14000,V,"[(1, 0), (1, 1), (2, 1), (2, 2), (1, 2), (1, 3), (0, 3), (0, 2), (4, 3)]","[(1, 0), (1, 1), (2, 1), (2, 2), (2, 3), (1, 3), (0, 3), (0, 2), (4, 3)]"
1,22,left,True,2023-09-18 08:43:10.212,2023-09-18 08:43:18.141,7.929,20,left,7000,14000,V,"[(0, 1), (0, 2), (1, 2), (1, 3), (2, 3), (2, 2), (3, 2), (4, 2), (0, 0)]","[(0, 1), (0, 2), (1, 2), (1, 3), (2, 3), (2, 2), (3, 2), (4, 2), (1, 0)]"
1,23,left,True,2023-09-18 08:43:35.177,2023-09-18 08:43:42.451,7.274,68,left,7000,14000,V,"[(0, 3), (0, 2), (1, 2), (1, 3), (2, 3), (2, 4), (1, 4), (0, 4), (4, 4)]","[(0, 3), (0, 2), (1, 2), (2, 2), (2, 3), (2, 4), (1, 4), (0, 4), (4, 4)]"
1,24,right,True,2023-09-18 08:43:59.488,2023-09-18 08:44:03.261,3.773,83,right,7000,14000,V,"[(3, 2), (4, 2), (4, 3), (3, 3), (3, 4), (2, 4), (2, 3), (2, 2), (0, 3)]","[(3, 2), (4, 2), (4, 3), (4, 4), (3, 4), (2, 4), (2, 3), (2, 2), (0, 3)]"
1,25,right,True,2023-09-18 08:44:20.298,2023-09-18 08:44:26.795,6.497,74,right,7000,14000,V,"[(0, 0), (0, 1), (1, 1), (1, 0), (2, 0), (2, 1), (3, 1), (4, 1), (4, 4)]","[(0, 0), (0, 1), (1, 1), (1, 0), (2, 0), (3, 0), (3, 1), (4, 1), (4, 4)]"
1,26,left,True,2023-09-18 08:44:43.828,2023-09-18 08:44:59.524,15.696,65,left,7000,14000,VH,"[(0, 0), (0, 1), (1, 1), (1, 0), (2, 0), (2, 1), (3, 1), (4, 1), (3, 3)]","[(0, 0), (0, 1), (1, 1), (1, 0), (2, 0), (3, 0), (3, 1), (4, 1), (3, 3)]"
1,27,right,True,2023-09-18 08:45:16.559,2023-09-18 08:45:19.868,3.309,52,right,7000,14000,VH,"[(4, 4), (3, 4), (3, 3), (4, 3), (4, 2), (3, 2), (3, 1), (4, 1), (0, 4)]","[(4, 4), (3, 4), (3, 3), (4, 3), (4, 2), (3, 2), (3, 1), (2, 1), (0, 4)]"
1,28,left,True,2023-09-18 08:45:36.902,2023-09-18 08:45:46.445,9.543,66,left,7000,14000,VH,"[(3, 0), (4, 0), (4, 1), (3, 1), (3, 2), (4, 2), (4, 3), (3, 3), (2, 2)]","[(3, 0), (4, 0), (4, 1), (3, 1), (3, 2), (4, 2), (4, 3), (4, 4), (2, 2)]"
1,29,right,True,2023-09-18 08:46:03.478,2023-09-18 08:46:06.264,2.786,9,right,7000,14000,VH,"[(3, 2), (4, 2), (4, 1), (3, 1), (3, 0), (2, 0), (2, 1), (2, 2), (3, 3)]","[(3, 2), (4, 2), (4, 1), (4, 0), (3, 0), (2, 0), (2, 1), (2, 2), (3, 3)]"
1,30,left,True,2023-09-18 08:46:23.300,2023-09-18 08:46:27.575,4.275,45,left,7000,14000,VH,"[(0, 3), (0, 4), (1, 4), (1, 3), (2, 3), (2, 4), (3, 4), (4, 4), (3, 0)]","[(0, 3), (0, 4), (1, 4), (1, 3), (2, 3), (3, 3), (3, 4), (4, 4), (3, 0)]"
1,31,right,True,2023-09-18 08:51:28.158,2023-09-18 08:51:33.388,5.23,15,right,7000,14000,V,"[(4, 3), (4, 2), (3, 2), (3, 3), (2, 3), (2, 4), (1, 4), (0, 4), (1, 0)]","[(4, 3), (4, 2), (3, 2), (2, 2), (2, 3), (2, 4), (1, 4), (0, 4), (1, 0)]"
1,32,left,False,2023-09-18 08:51:50.424,2023-09-18 08:52:05.321,14.897,70,right,7000,14000,V,"[(0, 0), (1, 0), (1, 1), (0, 1), (0, 2), (1, 2), (1, 3), (0, 3), (3, 1)]","[(0, 0), (1, 0), (1, 1), (0, 1), (0, 2), (1, 2), (1, 3), (0, 3), (3, 2)]"
1,33,left,True,2023-09-18 08:52:22.354,2023-09-18 08:52:27.529,5.175,78,left,7000,14000,V,"[(3, 2), (4, 2), (4, 3), (3, 3), (3, 4), (2, 4), (2, 3), (1, 3), (1, 1)]","[(3, 2), (4, 2), (4, 3), (4, 4), (3, 4), (2, 4), (2, 3), (1, 3), (1, 1)]"
1,34,right,True,2023-09-18 08:52:44.563,2023-09-18 08:52:48.772,4.209,25,right,7000,14000,V,"[(0, 3), (0, 2), (1, 2), (1, 3), (2, 3), (2, 2), (3, 2), (3, 1), (0, 0)]","[(0, 3), (0, 2), (1, 2), (1, 3), (2, 3), (3, 3), (3, 2), (3, 1), (0, 0)]"
1,35,right,False,2023-09-18 08:53:05.807,2023-09-18 08:53:12.462,6.655,60,left,7000,14000,V,"[(3, 1), (3, 2), (4, 2), (4, 3), (3, 3), (3, 4), (2, 4), (2, 3), (0, 3)]","[(3, 1), (3, 2), (4, 2), (4, 3), (3, 3), (3, 4), (2, 4), (2, 3), (1, 3)]"
1,36,left,False,2023-09-18 08:53:29.494,2023-09-18 08:53:36.182,6.688,80,right,7000,14000,VH,"[(4, 4), (4, 3), (3, 3), (3, 4), (2, 4), (2, 3), (1, 3), (1, 2), (0, 1)]","[(4, 4), (4, 3), (3, 3), (3, 4), (2, 4), (2, 3), (1, 3), (1, 2), (0, 2)]"
1,37,left,True,2023-09-18 08:53:53.204,2023-09-18 08:53:59.244,6.04,63,left,7000,14000,VH,"[(0, 3), (1, 3), (1, 2), (0, 2), (0, 1), (1, 1), (1, 0), (0, 0), (2, 4)]","[(0, 3), (1, 3), (1, 2), (0, 2), (0, 1), (1, 1), (1, 0), (2, 0), (2, 4)]"
1,38,right,True,2023-09-18 08:54:16.279,2023-09-18 08:54:18.421,2.142,42,right,7000,14000,VH,"[(0, 3), (0, 4), (1, 4), (1, 3), (2, 3), (2, 2), (3, 2), (3, 3), (4, 2)]","[(0, 3), (0, 4), (1, 4), (2, 4), (2, 3), (2, 2), (3, 2), (3, 3), (4, 2)]"
1,39,right,True,2023-09-18 08:54:35.457,2023-09-18 08:54:45.186,9.729,12,right,7000,14000,VH,"[(2, 4), (1, 4), (1, 3), (0, 3), (0, 2), (1, 2), (1, 1), (1, 0), (4, 0)]","[(2, 4), (1, 4), (0, 4), (0, 3), (0, 2), (1, 2), (1, 1), (1, 0), (4, 0)]"
1,40,left,True,2023-09-18 08:55:02.221,2023-09-18 08:55:09.551,7.33,7,left,7000,14000,VH,"[(1, 4), (1, 3), (2, 3), (2, 2), (3, 2), (3, 1), (2, 1), (1, 1), (2, 0)]","[(1, 4), (1, 3), (1, 2), (2, 2), (3, 2), (3, 1), (2, 1), (1, 1), (2, 0)]"
1,41,right,True,2023-09-18 08:55:26.588,2023-09-18 08:55:33.895,7.307,22,right,7000,14000,H,"[(4, 0), (3, 0), (3, 1), (2, 1), (2, 0), (1, 0), (1, 1), (1, 2), (3, 4)]","[(4, 0), (3, 0), (3, 1), (2, 1), (2, 0), (1, 0), (1, 1), (0, 1), (3, 4)]"
1,42,left,True,2023-09-18 08:55:50.929,2023-09-18 08:55:56.449,5.52,5,left,7000,14000,H,"[(1, 1), (2, 1), (2, 2), (1, 2), (1, 3), (2, 3), (2, 4), (1, 4), (0, 2)]","[(1, 1), (2, 1), (2, 2), (1, 2), (1, 3), (2, 3), (2, 4), (3, 4), (0, 2)]"
1,43,left,True,2023-09-18 08:56:13.484,2023-09-18 08:56:19.758,6.274,8,left,7000,14000,H,"[(1, 4), (2, 4), (2, 3), (1, 3), (1, 2), (0, 2), (0, 3), (0, 4), (1, 0)]","[(1, 4), (2, 4), (2, 3), (2, 2), (1, 2), (0, 2), (0, 3), (0, 4), (1, 0)]"
1,44,left,True,2023-09-18 08:56:36.792,2023-09-18 08:56:40.978,4.186,16,left,7000,14000,H,"[(0, 0), (1, 0), (1, 1), (2, 1), (2, 0), (3, 0), (3, 1), (3, 2), (0, 3)]","[(0, 0), (1, 0), (1, 1), (2, 1), (2, 0), (3, 0), (3, 1), (4, 1), (0, 3)]"
1,45,right,True,2023-09-18 08:56:58.014,2023-09-18 08:57:02.323,4.309,1,right,7000,14000,H,"[(4, 2), (4, 3), (3, 3), (3, 2), (2, 2), (2, 1), (1, 1), (1, 0), (0, 1)]","[(4, 2), (4, 3), (3, 3), (2, 3), (2, 2), (2, 1), (1, 1), (1, 0), (0, 1)]"
1,46,left,True,2023-09-18 09:04:22.474,2023-09-18 09:04:28.438,5.964,30,left,7000,14000,H,"[(1, 4), (0, 4), (0, 3), (1, 3), (1, 2), (0, 2), (0, 1), (0, 0), (4, 0)]","[(1, 4), (0, 4), (0, 3), (1, 3), (1, 2), (0, 2), (0, 1), (0, 0), (3, 0)]"
1,47,left,True,2023-09-18 09:04:45.473,2023-09-18 09:04:51.247,5.774,10,left,7000,14000,H,"[(4, 2), (4, 3), (3, 3), (3, 2), (2, 2), (2, 3), (1, 3), (0, 3), (4, 0)]","[(4, 2), (4, 3), (3, 3), (3, 2), (2, 2), (2, 3), (1, 3), (0, 3), (4, 1)]"
1,48,left,False,2023-09-18 09:05:08.282,2023-09-18 09:05:13.412,5.13,90,right,7000,14000,H,"[(4, 0), (4, 1), (3, 1), (3, 2), (2, 2), (2, 3), (1, 3), (0, 3), (3, 3)]","[(4, 0), (4, 1), (3, 1), (3, 2), (2, 2), (2, 3), (1, 3), (0, 3), (3, 4)]"
1,49,left,True,2023-09-18 09:05:30.447,2023-09-18 09:05:38.002,7.555,53,left,7000,14000,H,"[(1, 4), (2, 4), (2, 3), (3, 3), (3, 2), (4, 2), (4, 1), (4, 0), (1, 0)]","[(1, 4), (2, 4), (3, 4), (3, 3), (3, 2), (4, 2), (4, 1), (4, 0), (1, 0)]"
1,50,right,True,2023-09-18 09:05:55.034,2023-09-18 09:05:59.699,4.665,39,right,7000,14000,H,"[(4, 0), (4, 1), (3, 1), (3, 0), (2, 0), (2, 1), (1, 1), (0, 1), (1, 3)]","[(4, 0), (4, 1), (3, 1), (3, 0), (2, 0), (1, 0), (1, 1), (0, 1), (1, 3)]"
1,51,right,True,2023-09-18 09:06:16.733,2023-09-18 09:06:20.797,4.064,54,right,7000,14000,V,"[(4, 3), (3, 3), (3, 2), (2, 2), (2, 1), (1, 1), (1, 2), (0, 2), (1, 3)]","[(4, 3), (3, 3), (2, 3), (2, 2), (2, 1), (1, 1), (1, 2), (0, 2), (1, 3)]"
1,52,right,True,2023-09-18 09:06:37.820,2023-09-18 09:06:41.330,3.51,71,right,7000,14000,V,"[(0, 1), (1, 1), (1, 2), (2, 2), (2, 1), (3, 1), (3, 0), (4, 0), (0, 4)]","[(0, 1), (1, 1), (1, 2), (2, 2), (3, 2), (3, 1), (3, 0), (4, 0), (0, 4)]"
1,53,left,True,2023-09-18 09:06:58.363,2023-09-18 09:07:03.106,4.743,76,left,7000,14000,V,"[(1, 3), (2, 3), (2, 2), (3, 2), (3, 1), (2, 1), (2, 0), (3, 0), (1, 4)]","[(1, 3), (2, 3), (3, 3), (3, 2), (3, 1), (2, 1), (2, 0), (3, 0), (1, 4)]"
1,54,left,True,2023-09-18 09:07:20.140,2023-09-18 09:07:28.347,8.207,34,left,7000,14000,V,"[(0, 2), (1, 2), (1, 3), (2, 3), (2, 4), (3, 4), (3, 3), (3, 2), (4, 0)]","[(0, 2), (1, 2), (2, 2), (2, 3), (2, 4), (3, 4), (3, 3), (3, 2), (4, 0)]"
1,55,left,True,2023-09-18 09:07:45.383,2023-09-18 09:07:51.702,6.319,84,left,7000,14000,V,"[(2, 0), (1, 0), (1, 1), (2, 1), (2, 2), (1, 2), (1, 3), (1, 4), (0, 3)]","[(2, 0), (1, 0), (1, 1), (2, 1), (2, 2), (2, 3), (1, 3), (1, 4), (0, 3)]"
1,56,right,False,2023-09-18 09:08:08.736,2023-09-18 09:08:15.322,6.586,41,left,7000,14000,VH,"[(1, 0), (1, 1), (2, 1), (2, 2), (3, 2), (3, 1), (4, 1), (4, 0), (2, 3)]","[(1, 0), (1, 1), (1, 2), (2, 2), (3, 2), (3, 1), (4, 1), (4, 0), (2, 3)]"
1,57,right,True,2023-09-18 09:08:32.358,2023-09-18 09:08:38.245,5.887,40,right,7000,14000,VH,"[(0, 0), (1, 0), (1, 1), (0, 1), (0, 2), (1, 2), (1, 3), (0, 3), (4, 3)]","[(0, 0), (1, 0), (1, 1), (0, 1), (0, 2), (1, 2), (1, 3), (0, 3), (3, 3)]"
1,58,right,True,2023-09-18 09:08:55.278,2023-09-18 09:08:58.542,3.264,4,right,7000,14000,VH,"[(4, 3), (4, 2), (3, 2), (3, 3), (2, 3), (2, 2), (1, 2), (1, 3), (4, 4)]","[(4, 3), (4, 2), (3, 2), (3, 3), (2, 3), (2, 2), (1, 2), (0, 2), (4, 4)]"
1,59,right,True,2023-09-18 09:09:15.577,2023-09-18 09:09:18.918,3.341,13,right,7000,14000,VH,"[(4, 1), (4, 0), (3, 0), (3, 1), (2, 1), (2, 2), (3, 2), (3, 3), (0, 3)]","[(4, 1), (4, 0), (3, 0), (2, 0), (2, 1), (2, 2), (3, 2), (3, 3), (0, 3)]"
1,60,left,True,2023-09-18 09:09:35.954,2023-09-18 09:09:41.817,5.863,2,left,7000,14000,VH,"[(4, 1), (4, 2), (3, 2), (3, 1), (2, 1), (2, 2), (1, 2), (1, 1), (4, 3)]","[(4, 1), (4, 2), (3, 2), (3, 1), (2, 1), (2, 2), (1, 2), (0, 2), (4, 3)]"
1,61,right,False,2023-09-18 09:16:18.605,2023-09-18 09:16:23.925,5.32,61,left,7000,14000,H,"[(2, 3), (3, 3), (3, 2), (2, 2), (2, 1), (3, 1), (3, 0), (2, 0), (1, 1)]","[(2, 3), (3, 3), (3, 2), (2, 2), (2, 1), (3, 1), (3, 0), (4, 0), (1, 1)]"
1,62,right,True,2023-09-18 09:16:40.960,2023-09-18 09:16:48.622,7.662,59,right,7000,14000,H,"[(0, 4), (0, 3), (1, 3), (1, 4), (2, 4), (2, 3), (3, 3), (3, 2), (2, 1)]","[(0, 4), (0, 3), (1, 3), (1, 4), (2, 4), (3, 4), (3, 3), (3, 2), (2, 1)]"
1,63,left,True,2023-09-18 09:17:05.658,2023-09-18 09:17:12.124,6.466,19,left,7000,14000,H,"[(4, 4), (4, 3), (3, 3), (3, 2), (2, 2), (2, 1), (3, 1), (3, 0), (0, 0)]","[(4, 4), (4, 3), (4, 2), (3, 2), (2, 2), (2, 1), (3, 1), (3, 0), (0, 0)]"
1,64,right,True,2023-09-18 09:17:29.157,2023-09-18 09:17:33.354,4.197,86,right,7000,14000,H,"[(2, 3), (2, 2), (3, 2), (3, 3), (4, 3), (4, 4), (3, 4), (2, 4), (2, 0)]","[(2, 3), (2, 2), (3, 2), (4, 2), (4, 3), (4, 4), (3, 4), (2, 4), (2, 0)]"
1,65,right,True,2023-09-18 09:17:50.388,2023-09-18 09:17:54.441,4.053,33,right,7000,14000,H,"[(4, 2), (4, 3), (3, 3), (3, 2), (2, 2), (2, 3), (1, 3), (1, 4), (0, 1)]","[(4, 2), (4, 3), (3, 3), (3, 2), (2, 2), (1, 2), (1, 3), (1, 4), (0, 1)]"
1,66,right,False,2023-09-18 09:18:11.476,2023-09-18 09:18:20.139,8.663,87,left,7000,14000,V,"[(4, 1), (4, 2), (3, 2), (3, 1), (2, 1), (2, 2), (1, 2), (1, 1), (2, 0)]","[(4, 1), (4, 2), (3, 2), (3, 1), (2, 1), (2, 2), (1, 2), (0, 2), (2, 0)]"
1,67,right,True,2023-09-18 09:18:37.175,2023-09-18 09:18:42.226,5.051,23,right,7000,14000,V,"[(4, 2), (4, 1), (3, 1), (3, 2), (2, 2), (2, 1), (1, 1), (1, 0), (2, 0)]","[(4, 2), (4, 1), (3, 1), (3, 2), (2, 2), (1, 2), (1, 1), (1, 0), (2, 0)]"
1,68,right,True,2023-09-18 09:18:59.263,2023-09-18 09:19:05.013,5.75,77,right,7000,14000,V,"[(1, 1), (2, 1), (2, 2), (1, 2), (1, 3), (2, 3), (2, 4), (1, 4), (4, 3)]","[(1, 1), (2, 1), (2, 2), (1, 2), (1, 3), (2, 3), (2, 4), (3, 4), (4, 3)]"
1,69,left,True,2023-09-18 09:19:22.049,2023-09-18 09:19:24.608,2.559,67,left,7000,14000,V,"[(0, 2), (0, 3), (1, 3), (1, 2), (2, 2), (2, 1), (1, 1), (1, 0), (0, 4)]","[(0, 2), (0, 3), (1, 3), (2, 3), (2, 2), (2, 1), (1, 1), (1, 0), (0, 4)]"
1,70,right,True,2023-09-18 09:19:41.648,2023-09-18 09:19:47.067,5.419,51,right,7000,14000,V,"[(2, 0), (1, 0), (1, 1), (2, 1), (2, 2), (3, 2), (3, 1), (4, 1), (0, 3)]","[(2, 0), (1, 0), (1, 1), (1, 2), (2, 2), (3, 2), (3, 1), (4, 1), (0, 3)]"
1,71,left,True,2023-09-18 09:20:04.103,2023-09-18 09:20:07.321,3.218,48,left,7000,14000,VH,"[(2, 3), (2, 4), (3, 4), (3, 3), (4, 3), (4, 2), (3, 2), (2, 2), (0, 1)]","[(2, 3), (2, 4), (3, 4), (4, 4), (4, 3), (4, 2), (3, 2), (2, 2), (0, 1)]"
1,72,right,True,2023-09-18 09:20:24.356,2023-09-18 09:20:28.797,4.441,35,right,7000,14000,VH,"[(4, 4), (4, 3), (3, 3), (3, 4), (2, 4), (2, 3), (1, 3), (0, 3), (1, 2)]","[(4, 4), (4, 3), (3, 3), (3, 4), (2, 4), (1, 4), (1, 3), (0, 3), (1, 2)]"
1,73,left,True,2023-09-18 09:20:45.833,2023-09-18 09:20:47.963,2.13,17,left,7000,14000,VH,"[(1, 0), (2, 0), (2, 1), (1, 1), (1, 2), (2, 2), (2, 3), (3, 3), (0, 1)]","[(1, 0), (2, 0), (2, 1), (1, 1), (1, 2), (1, 3), (2, 3), (3, 3), (0, 1)]"
1,74,right,True,2023-09-18 09:21:04.998,2023-09-18 09:21:10.039,5.041,36,right,7000,14000,VH,"[(2, 3), (2, 4), (1, 4), (1, 3), (0, 3), (0, 2), (1, 2), (2, 2), (2, 0)]","[(2, 3), (2, 4), (1, 4), (0, 4), (0, 3), (0, 2), (1, 2), (2, 2), (2, 0)]"
1,75,left,True,2023-09-18 09:21:27.076,2023-09-18 09:21:33.827,6.751,75,left,7000,14000,VH,"[(0, 4), (1, 4), (1, 3), (2, 3), (2, 4), (3, 4), (3, 3), (4, 3), (3, 1)]","[(0, 4), (1, 4), (1, 3), (2, 3), (2, 4), (3, 4), (3, 3), (3, 2), (3, 1)]"
1,76,left,True,2023-09-18 09:26:38.432,2023-09-18 09:26:43.741,5.309,56,left,7000,14000,H,"[(2, 0), (1, 0), (1, 1), (0, 1), (0, 2), (1, 2), (1, 3), (2, 3), (3, 4)]","[(2, 0), (1, 0), (0, 0), (0, 1), (0, 2), (1, 2), (1, 3), (2, 3), (3, 4)]"
1,77,left,False,2023-09-18 09:27:00.775,2023-09-18 09:27:05.438,4.663,18,right,7000,14000,H,"[(4, 1), (3, 1), (3, 2), (4, 2), (4, 3), (3, 3), (3, 4), (2, 4), (2, 2)]","[(4, 1), (3, 1), (3, 2), (4, 2), (4, 3), (4, 4), (3, 4), (2, 4), (2, 2)]"
1,78,right,False,2023-09-18 09:27:22.474,2023-09-18 09:27:28.883,6.409,44,left,7000,14000,H,"[(4, 3), (4, 4), (3, 4), (3, 3), (2, 3), (2, 2), (3, 2), (4, 2), (4, 0)]","[(4, 3), (4, 4), (3, 4), (2, 4), (2, 3), (2, 2), (3, 2), (4, 2), (4, 0)]"
1,79,right,True,2023-09-18 09:27:45.916,2023-09-18 09:27:51.357,5.441,55,right,7000,14000,H,"[(3, 4), (4, 4), (4, 3), (3, 3), (3, 2), (4, 2), (4, 1), (4, 0), (2, 2)]","[(3, 4), (4, 4), (4, 3), (3, 3), (3, 2), (3, 1), (4, 1), (4, 0), (2, 2)]"
1,80,left,True,2023-09-18 09:28:08.393,2023-09-18 09:28:12.600,4.207,37,left,7000,14000,H,"[(4, 0), (4, 1), (3, 1), (3, 2), (2, 2), (2, 3), (3, 3), (4, 3), (2, 1)]","[(4, 0), (4, 1), (4, 2), (3, 2), (2, 2), (2, 3), (3, 3), (4, 3), (2, 1)]"
1,81,left,True,2023-09-18 09:28:29.635,2023-09-18 09:28:34.343,4.708,81,left,7000,14000,VH,"[(4, 0), (4, 1), (3, 1), (3, 2), (4, 2), (4, 3), (3, 3), (3, 4), (1, 3)]","[(4, 0), (4, 1), (3, 1), (3, 2), (4, 2), (4, 3), (3, 3), (2, 3), (1, 3)]"
1,82,right,True,2023-09-18 09:28:51.367,2023-09-18 09:28:57.620,6.253,72,right,7000,14000,VH,"[(4, 1), (4, 2), (3, 2), (3, 1), (2, 1), (2, 2), (1, 2), (0, 2), (0, 1)]","[(4, 1), (4, 2), (3, 2), (3, 1), (2, 1), (1, 1), (1, 2), (0, 2), (0, 1)]"
1,83,right,True,2023-09-18 09:29:14.654,2023-09-18 09:29:16.863,2.209,73,right,7000,14000,VH,"[(4, 2), (4, 1), (3, 1), (3, 2), (2, 2), (2, 1), (1, 1), (1, 2), (1, 4)]","[(4, 2), (4, 1), (3, 1), (3, 2), (2, 2), (2, 1), (1, 1), (0, 1), (1, 4)]"
1,84,right,True,2023-09-18 09:29:33.899,2023-09-18 09:29:40.683,6.784,26,right,7000,14000,VH,"[(1, 3), (1, 2), (2, 2), (2, 1), (3, 1), (3, 0), (2, 0), (1, 0), (4, 0)]","[(1, 3), (1, 2), (1, 1), (2, 1), (3, 1), (3, 0), (2, 0), (1, 0), (4, 0)]"
1,85,right,True,2023-09-18 09:29:57.718,2023-09-18 09:30:02.970,5.252,46,right,7000,14000,VH,"[(4, 1), (4, 2), (3, 2), (3, 1), (2, 1), (2, 0), (1, 0), (1, 1), (0, 1)]","[(4, 1), (4, 2), (3, 2), (2, 2), (2, 1), (2, 0), (1, 0), (1, 1), (0, 1)]"
1,86,left,False,2023-09-18 09:30:20.006,2023-09-18 09:30:31.859,11.853,50,right,7000,14000,V,"[(4, 4), (4, 3), (3, 3), (3, 2), (2, 2), (2, 3), (1, 3), (1, 4), (0, 3)]","[(4, 4), (4, 3), (3, 3), (3, 2), (2, 2), (2, 3), (1, 3), (1, 4), (0, 4)]"
1,87,left,True,2023-09-18 09:30:48.894,2023-09-18 09:30:51.923,3.029,47,left,7000,14000,V,"[(4, 0), (4, 1), (3, 1), (3, 0), (2, 0), (2, 1), (1, 1), (1, 0), (4, 2)]","[(4, 0), (4, 1), (3, 1), (3, 0), (2, 0), (2, 1), (1, 1), (0, 1), (4, 2)]"
1,88,left,True,2023-09-18 09:31:08.958,2023-09-18 09:31:11.999,3.041,3,left,7000,14000,V,"[(3, 4), (3, 3), (2, 3), (2, 4), (1, 4), (1, 3), (0, 3), (0, 2), (3, 2)]","[(3, 4), (3, 3), (2, 3), (2, 4), (1, 4), (0, 4), (0, 3), (0, 2), (3, 2)]"
1,89,right,True,2023-09-18 09:31:29.034,2023-09-18 09:31:34.780,5.746,89,right,7000,14000,V,"[(0, 3), (0, 4), (1, 4), (1, 3), (2, 3), (2, 2), (3, 2), (3, 1), (2, 0)]","[(0, 3), (0, 4), (1, 4), (2, 4), (2, 3), (2, 2), (3, 2), (3, 1), (2, 0)]"
1,90,left,True,2023-09-18 09:31:51.812,2023-09-18 09:31:56.041,4.229,58,left,7000,14000,V,"[(0, 1), (0, 0), (1, 0), (1, 1), (2, 1), (2, 0), (3, 0), (4, 0), (2, 3)]","[(0, 1), (0, 0), (1, 0), (1, 1), (2, 1), (3, 1), (3, 0), (4, 0), (2, 3)]"
2,1,right,True,2023-09-18 11:03:41.667,2023-09-18 11:03:49.475,7.808,59,right,7000,14000,VH,"[(0, 4), (0, 3), (1, 3), (1, 4), (2, 4), (2, 3), (3, 3), (3, 2), (2, 1)]","[(0, 4), (0, 3), (1, 3), (1, 4), (2, 4), (3, 4), (3, 3), (3, 2), (2, 1)]"
2,2,left,True,2023-09-18 11:04:06.509,2023-09-18 11:04:16.005,9.496,82,left,7000,14000,VH,"[(1, 0), (1, 1), (2, 1), (2, 0), (3, 0), (3, 1), (4, 1), (4, 0), (0, 3)]","[(1, 0), (1, 1), (2, 1), (2, 0), (3, 0), (3, 1), (4, 1), (4, 2), (0, 3)]"
2,3,left,True,2023-09-18 11:04:33.041,2023-09-18 11:04:44.148,11.107,35,left,7000,14000,VH,"[(4, 4), (4, 3), (3, 3), (3, 4), (2, 4), (2, 3), (1, 3), (0, 3), (1, 2)]","[(4, 4), (4, 3), (3, 3), (3, 4), (2, 4), (1, 4), (1, 3), (0, 3), (1, 2)]"
2,4,right,True,2023-09-18 11:05:01.183,2023-09-18 11:05:06.281,5.098,8,right,7000,14000,VH,"[(1, 4), (2, 4), (2, 3), (1, 3), (1, 2), (0, 2), (0, 3), (0, 4), (1, 0)]","[(1, 4), (2, 4), (2, 3), (2, 2), (1, 2), (0, 2), (0, 3), (0, 4), (1, 0)]"
2,5,left,True,2023-09-18 11:05:23.315,2023-09-18 11:05:30.901,7.586,48,left,7000,14000,VH,"[(2, 3), (2, 4), (3, 4), (3, 3), (4, 3), (4, 2), (3, 2), (2, 2), (0, 1)]","[(2, 3), (2, 4), (3, 4), (4, 4), (4, 3), (4, 2), (3, 2), (2, 2), (0, 1)]"
2,6,left,True,2023-09-18 11:05:47.936,2023-09-18 11:06:03.343,15.407,17,left,7000,14000,H,"[(1, 0), (2, 0), (2, 1), (1, 1), (1, 2), (2, 2), (2, 3), (3, 3), (0, 1)]","[(1, 0), (2, 0), (2, 1), (1, 1), (1, 2), (1, 3), (2, 3), (3, 3), (0, 1)]"
2,7,left,False,2023-09-18 11:06:20.377,2023-09-18 11:06:29.796,9.419,9,right,7000,14000,H,"[(3, 2), (4, 2), (4, 1), (3, 1), (3, 0), (2, 0), (2, 1), (2, 2), (3, 3)]","[(3, 2), (4, 2), (4, 1), (4, 0), (3, 0), (2, 0), (2, 1), (2, 2), (3, 3)]"
2,8,left,True,2023-09-18 11:06:46.820,2023-09-18 11:06:58.407,11.587,7,left,7000,14000,H,"[(1, 4), (1, 3), (2, 3), (2, 2), (3, 2), (3, 1), (2, 1), (1, 1), (2, 0)]","[(1, 4), (1, 3), (1, 2), (2, 2), (3, 2), (3, 1), (2, 1), (1, 1), (2, 0)]"
2,9,left,True,2023-09-18 11:07:15.441,2023-09-18 11:07:25.627,10.186,20,left,7000,14000,H,"[(0, 1), (0, 2), (1, 2), (1, 3), (2, 3), (2, 2), (3, 2), (4, 2), (0, 0)]","[(0, 1), (0, 2), (1, 2), (1, 3), (2, 3), (2, 2), (3, 2), (4, 2), (1, 0)]"
2,10,right,False,2023-09-18 11:07:42.662,2023-09-18 11:07:54.480,11.818,87,left,7000,14000,H,"[(4, 1), (4, 2), (3, 2), (3, 1), (2, 1), (2, 2), (1, 2), (1, 1), (2, 0)]","[(4, 1), (4, 2), (3, 2), (3, 1), (2, 1), (2, 2), (1, 2), (0, 2), (2, 0)]"
2,11,left,True,2023-09-18 11:08:11.515,2023-09-18 11:08:19.580,8.065,3,left,7000,14000,V,"[(3, 4), (3, 3), (2, 3), (2, 4), (1, 4), (1, 3), (0, 3), (0, 2), (3, 2)]","[(3, 4), (3, 3), (2, 3), (2, 4), (1, 4), (0, 4), (0, 3), (0, 2), (3, 2)]"
2,12,left,True,2023-09-18 11:08:36.613,2023-09-18 11:08:45.332,8.719,90,left,7000,14000,V,"[(4, 0), (4, 1), (3, 1), (3, 2), (2, 2), (2, 3), (1, 3), (0, 3), (3, 3)]","[(4, 0), (4, 1), (3, 1), (3, 2), (2, 2), (2, 3), (1, 3), (0, 3), (3, 4)]"
2,13,left,True,2023-09-18 11:09:02.367,2023-09-18 11:09:10.399,8.032,10,left,7000,14000,V,"[(4, 2), (4, 3), (3, 3), (3, 2), (2, 2), (2, 3), (1, 3), (0, 3), (4, 0)]","[(4, 2), (4, 3), (3, 3), (3, 2), (2, 2), (2, 3), (1, 3), (0, 3), (4, 1)]"
2,14,left,True,2023-09-18 11:09:27.421,2023-09-18 11:09:35.384,7.963,78,left,7000,14000,V,"[(3, 2), (4, 2), (4, 3), (3, 3), (3, 4), (2, 4), (2, 3), (1, 3), (1, 1)]","[(3, 2), (4, 2), (4, 3), (4, 4), (3, 4), (2, 4), (2, 3), (1, 3), (1, 1)]"
2,15,left,True,2023-09-18 11:09:52.421,2023-09-18 11:10:02.160,9.739,26,left,7000,14000,V,"[(1, 3), (1, 2), (2, 2), (2, 1), (3, 1), (3, 0), (2, 0), (1, 0), (4, 0)]","[(1, 3), (1, 2), (1, 1), (2, 1), (3, 1), (3, 0), (2, 0), (1, 0), (4, 0)]"
2,16,right,False,2023-09-18 11:13:55.371,2023-09-18 11:14:10.291,14.92,74,left,7000,14000,H,"[(0, 0), (0, 1), (1, 1), (1, 0), (2, 0), (2, 1), (3, 1), (4, 1), (4, 4)]","[(0, 0), (0, 1), (1, 1), (1, 0), (2, 0), (3, 0), (3, 1), (4, 1), (4, 4)]"
2,17,right,False,2023-09-18 11:14:27.324,2023-09-18 11:14:42.332,15.008,38,left,7000,14000,H,"[(0, 0), (1, 0), (1, 1), (2, 1), (2, 2), (1, 2), (1, 3), (1, 4), (4, 2)]","[(0, 0), (1, 0), (2, 0), (2, 1), (2, 2), (1, 2), (1, 3), (1, 4), (4, 2)]"
2,18,left,True,2023-09-18 11:14:59.368,2023-09-18 11:15:04.608,5.24,80,left,7000,14000,H,"[(4, 4), (4, 3), (3, 3), (3, 4), (2, 4), (2, 3), (1, 3), (1, 2), (0, 1)]","[(4, 4), (4, 3), (3, 3), (3, 4), (2, 4), (2, 3), (1, 3), (1, 2), (0, 2)]"
2,19,left,False,2023-09-18 11:15:21.644,2023-09-18 11:15:36.506,14.862,4,right,7000,14000,H,"[(4, 3), (4, 2), (3, 2), (3, 3), (2, 3), (2, 2), (1, 2), (1, 3), (4, 4)]","[(4, 3), (4, 2), (3, 2), (3, 3), (2, 3), (2, 2), (1, 2), (0, 2), (4, 4)]"
2,20,right,True,2023-09-18 11:15:53.541,2023-09-18 11:16:09.870,16.329,37,right,7000,14000,H,"[(4, 0), (4, 1), (3, 1), (3, 2), (2, 2), (2, 3), (3, 3), (4, 3), (2, 1)]","[(4, 0), (4, 1), (4, 2), (3, 2), (2, 2), (2, 3), (3, 3), (4, 3), (2, 1)]"
2,21,left,True,2023-09-18 11:16:26.905,2023-09-18 11:16:31.679,4.774,89,left,7000,14000,VH,"[(0, 3), (0, 4), (1, 4), (1, 3), (2, 3), (2, 2), (3, 2), (3, 1), (2, 0)]","[(0, 3), (0, 4), (1, 4), (2, 4), (2, 3), (2, 2), (3, 2), (3, 1), (2, 0)]"
2,22,left,True,2023-09-18 11:16:48.715,2023-09-18 11:16:56.945,8.23,58,left,7000,14000,VH,"[(0, 1), (0, 0), (1, 0), (1, 1), (2, 1), (2, 0), (3, 0), (4, 0), (2, 3)]","[(0, 1), (0, 0), (1, 0), (1, 1), (2, 1), (3, 1), (3, 0), (4, 0), (2, 3)]"
2,23,right,True,2023-09-18 11:17:13.980,2023-09-18 11:17:26.222,12.242,40,right,7000,14000,VH,"[(0, 0), (1, 0), (1, 1), (0, 1), (0, 2), (1, 2), (1, 3), (0, 3), (4, 3)]","[(0, 0), (1, 0), (1, 1), (0, 1), (0, 2), (1, 2), (1, 3), (0, 3), (3, 3)]"
2,24,left,True,2023-09-18 11:17:43.260,2023-09-18 11:17:48.753,5.493,71,left,7000,14000,VH,"[(0, 1), (1, 1), (1, 2), (2, 2), (2, 1), (3, 1), (3, 0), (4, 0), (0, 4)]","[(0, 1), (1, 1), (1, 2), (2, 2), (3, 2), (3, 1), (3, 0), (4, 0), (0, 4)]"
2,25,left,True,2023-09-18 11:18:05.790,2023-09-18 11:18:09.063,3.273,30,left,7000,14000,VH,"[(1, 4), (0, 4), (0, 3), (1, 3), (1, 2), (0, 2), (0, 1), (0, 0), (4, 0)]","[(1, 4), (0, 4), (0, 3), (1, 3), (1, 2), (0, 2), (0, 1), (0, 0), (3, 0)]"
2,26,right,True,2023-09-18 11:18:26.097,2023-09-18 11:18:36.127,10.03,69,right,7000,14000,V,"[(3, 4), (2, 4), (2, 3), (1, 3), (1, 2), (2, 2), (2, 1), (3, 1), (0, 2)]","[(3, 4), (2, 4), (1, 4), (1, 3), (1, 2), (2, 2), (2, 1), (3, 1), (0, 2)]"
2,27,left,True,2023-09-18 11:18:53.162,2023-09-18 11:19:02.771,9.609,67,left,7000,14000,V,"[(0, 2), (0, 3), (1, 3), (1, 2), (2, 2), (2, 1), (1, 1), (1, 0), (0, 4)]","[(0, 2), (0, 3), (1, 3), (2, 3), (2, 2), (2, 1), (1, 1), (1, 0), (0, 4)]"
2,28,left,True,2023-09-18 11:19:19.806,2023-09-18 11:19:23.682,3.876,53,left,7000,14000,V,"[(1, 4), (2, 4), (2, 3), (3, 3), (3, 2), (4, 2), (4, 1), (4, 0), (1, 0)]","[(1, 4), (2, 4), (3, 4), (3, 3), (3, 2), (4, 2), (4, 1), (4, 0), (1, 0)]"
2,29,right,True,2023-09-18 11:19:40.715,2023-09-18 11:19:48.023,7.308,6,right,7000,14000,V,"[(4, 4), (4, 3), (3, 3), (3, 2), (2, 2), (2, 3), (1, 3), (1, 2), (1, 1)]","[(4, 4), (4, 3), (4, 2), (3, 2), (2, 2), (2, 3), (1, 3), (1, 2), (1, 1)]"
2,30,left,True,2023-09-18 11:20:05.059,2023-09-18 11:20:12.799,7.74,72,left,7000,14000,V,"[(4, 1), (4, 2), (3, 2), (3, 1), (2, 1), (2, 2), (1, 2), (0, 2), (0, 1)]","[(4, 1), (4, 2), (3, 2), (3, 1), (2, 1), (1, 1), (1, 2), (0, 2), (0, 1)]"
2,31,left,True,2023-09-18 11:22:23.749,2023-09-18 11:22:30.746,6.997,27,left,7000,14000,VH,"[(0, 4), (0, 3), (1, 3), (1, 2), (2, 2), (2, 1), (1, 1), (1, 0), (4, 0)]","[(0, 4), (0, 3), (0, 2), (1, 2), (2, 2), (2, 1), (1, 1), (1, 0), (4, 0)]"
2,32,right,True,2023-09-18 11:22:47.781,2023-09-18 11:22:55.266,7.485,42,right,7000,14000,VH,"[(0, 3), (0, 4), (1, 4), (1, 3), (2, 3), (2, 2), (3, 2), (3, 3), (4, 2)]","[(0, 3), (0, 4), (1, 4), (2, 4), (2, 3), (2, 2), (3, 2), (3, 3), (4, 2)]"
2,33,left,False,2023-09-18 11:23:12.302,2023-09-18 11:23:16.487,4.185,13,right,7000,14000,VH,"[(4, 1), (4, 0), (3, 0), (3, 1), (2, 1), (2, 2), (3, 2), (3, 3), (0, 3)]","[(4, 1), (4, 0), (3, 0), (2, 0), (2, 1), (2, 2), (3, 2), (3, 3), (0, 3)]"
2,34,right,True,2023-09-18 11:23:33.522,2023-09-18 11:23:40.874,7.352,32,right,7000,14000,VH,"[(0, 4), (1, 4), (1, 3), (2, 3), (2, 4), (3, 4), (3, 3), (3, 2), (4, 2)]","[(0, 4), (1, 4), (1, 3), (2, 3), (2, 4), (3, 4), (3, 3), (4, 3), (4, 2)]"
2,35,right,True,2023-09-18 11:23:57.910,2023-09-18 11:24:05.605,7.695,43,right,7000,14000,VH,"[(1, 3), (2, 3), (2, 2), (3, 2), (3, 3), (4, 3), (4, 4), (3, 4), (2, 4)]","[(1, 3), (2, 3), (2, 2), (3, 2), (4, 2), (4, 3), (4, 4), (3, 4), (2, 4)]"
2,36,right,False,2023-09-18 11:24:22.643,2023-09-18 11:24:26.360,3.717,60,left,7000,14000,V,"[(3, 1), (3, 2), (4, 2), (4, 3), (3, 3), (3, 4), (2, 4), (2, 3), (0, 3)]","[(3, 1), (3, 2), (4, 2), (4, 3), (3, 3), (3, 4), (2, 4), (2, 3), (1, 3)]"
2,37,right,False,2023-09-18 11:24:43.395,2023-09-18 11:24:50.325,6.93,41,left,7000,14000,V,"[(1, 0), (1, 1), (2, 1), (2, 2), (3, 2), (3, 1), (4, 1), (4, 0), (2, 3)]","[(1, 0), (1, 1), (1, 2), (2, 2), (3, 2), (3, 1), (4, 1), (4, 0), (2, 3)]"
2,38,right,True,2023-09-18 11:25:07.361,2023-09-18 11:25:17.834,10.473,56,right,7000,14000,V,"[(2, 0), (1, 0), (1, 1), (0, 1), (0, 2), (1, 2), (1, 3), (2, 3), (3, 4)]","[(2, 0), (1, 0), (0, 0), (0, 1), (0, 2), (1, 2), (1, 3), (2, 3), (3, 4)]"
2,39,left,True,2023-09-18 11:25:34.870,2023-09-18 11:25:40.933,6.063,55,left,7000,14000,V,"[(3, 4), (4, 4), (4, 3), (3, 3), (3, 2), (4, 2), (4, 1), (4, 0), (2, 2)]","[(3, 4), (4, 4), (4, 3), (3, 3), (3, 2), (3, 1), (4, 1), (4, 0), (2, 2)]"
2,40,right,True,2023-09-18 11:25:57.968,2023-09-18 11:26:05.453,7.485,52,right,7000,14000,V,"[(4, 4), (3, 4), (3, 3), (4, 3), (4, 2), (3, 2), (3, 1), (4, 1), (0, 4)]","[(4, 4), (3, 4), (3, 3), (4, 3), (4, 2), (3, 2), (3, 1), (2, 1), (0, 4)]"
2,41,left,False,2023-09-18 11:26:22.489,2023-09-18 11:26:27.929,5.44,45,right,7000,14000,H,"[(0, 3), (0, 4), (1, 4), (1, 3), (2, 3), (2, 4), (3, 4), (4, 4), (3, 0)]","[(0, 3), (0, 4), (1, 4), (1, 3), (2, 3), (3, 3), (3, 4), (4, 4), (3, 0)]"
2,42,left,False,2023-09-18 11:26:44.964,2023-09-18 11:26:59.328,14.364,22,right,7000,14000,H,"[(4, 0), (3, 0), (3, 1), (2, 1), (2, 0), (1, 0), (1, 1), (1, 2), (3, 4)]","[(4, 0), (3, 0), (3, 1), (2, 1), (2, 0), (1, 0), (1, 1), (0, 1), (3, 4)]"
2,43,right,False,2023-09-18 11:27:16.363,2023-09-18 11:27:30.293,13.93,61,left,7000,14000,H,"[(2, 3), (3, 3), (3, 2), (2, 2), (2, 1), (3, 1), (3, 0), (2, 0), (1, 1)]","[(2, 3), (3, 3), (3, 2), (2, 2), (2, 1), (3, 1), (3, 0), (4, 0), (1, 1)]"
2,44,left,False,2023-09-18 11:27:47.328,2023-09-18 11:28:03.390,16.062,57,right,7000,14000,H,"[(4, 1), (4, 2), (3, 2), (3, 3), (2, 3), (2, 2), (1, 2), (0, 2), (0, 3)]","[(4, 1), (4, 2), (4, 3), (3, 3), (2, 3), (2, 2), (1, 2), (0, 2), (0, 3)]"
2,45,left,False,2023-09-18 11:28:20.425,2023-09-18 11:28:35.799,15.374,63,right,7000,14000,H,"[(0, 3), (1, 3), (1, 2), (0, 2), (0, 1), (1, 1), (1, 0), (0, 0), (2, 4)]","[(0, 3), (1, 3), (1, 2), (0, 2), (0, 1), (1, 1), (1, 0), (2, 0), (2, 4)]"
2,46,left,False,2023-09-18 11:34:03.282,2023-09-18 11:34:11.834,8.552,54,right,7000,14000,H,"[(4, 3), (3, 3), (3, 2), (2, 2), (2, 1), (1, 1), (1, 2), (0, 2), (1, 3)]","[(4, 3), (3, 3), (2, 3), (2, 2), (2, 1), (1, 1), (1, 2), (0, 2), (1, 3)]"
2,47,right,True,2023-09-18 11:34:28.868,2023-09-18 11:34:41.642,12.774,73,right,7000,14000,H,"[(4, 2), (4, 1), (3, 1), (3, 2), (2, 2), (2, 1), (1, 1), (1, 2), (1, 4)]","[(4, 2), (4, 1), (3, 1), (3, 2), (2, 2), (2, 1), (1, 1), (0, 1), (1, 4)]"
2,48,right,False,2023-09-18 11:34:58.675,2023-09-18 11:35:14.484,15.809,83,left,7000,14000,H,"[(3, 2), (4, 2), (4, 3), (3, 3), (3, 4), (2, 4), (2, 3), (2, 2), (0, 3)]","[(3, 2), (4, 2), (4, 3), (4, 4), (3, 4), (2, 4), (2, 3), (2, 2), (0, 3)]"
2,49,left,True,2023-09-18 11:35:31.520,2023-09-18 11:35:47.172,15.652,44,left,7000,14000,H,"[(4, 3), (4, 4), (3, 4), (3, 3), (2, 3), (2, 2), (3, 2), (4, 2), (4, 0)]","[(4, 3), (4, 4), (3, 4), (2, 4), (2, 3), (2, 2), (3, 2), (4, 2), (4, 0)]"
2,50,left,False,2023-09-18 11:36:04.208,2023-09-18 11:36:21.325,17.117,2,right,7000,14000,H,"[(4, 1), (4, 2), (3, 2), (3, 1), (2, 1), (2, 2), (1, 2), (1, 1), (4, 3)]","[(4, 1), (4, 2), (3, 2), (3, 1), (2, 1), (2, 2), (1, 2), (0, 2), (4, 3)]"
2,51,right,True,2023-09-18 11:36:38.362,2023-09-18 11:36:44.778,6.416,84,right,7000,14000,V,"[(2, 0), (1, 0), (1, 1), (2, 1), (2, 2), (1, 2), (1, 3), (1, 4), (0, 3)]","[(2, 0), (1, 0), (1, 1), (2, 1), (2, 2), (2, 3), (1, 3), (1, 4), (0, 3)]"
2,52,right,True,2023-09-18 11:37:01.815,2023-09-18 11:37:10.478,8.663,75,right,7000,14000,V,"[(0, 4), (1, 4), (1, 3), (2, 3), (2, 4), (3, 4), (3, 3), (4, 3), (3, 1)]","[(0, 4), (1, 4), (1, 3), (2, 3), (2, 4), (3, 4), (3, 3), (3, 2), (3, 1)]"
2,53,right,True,2023-09-18 11:37:27.513,2023-09-18 11:37:36.533,9.02,21,right,7000,14000,V,"[(0, 4), (0, 3), (1, 3), (1, 2), (2, 2), (2, 1), (1, 1), (0, 1), (3, 1)]","[(0, 4), (0, 3), (0, 2), (1, 2), (2, 2), (2, 1), (1, 1), (0, 1), (3, 1)]"
2,54,right,True,2023-09-18 11:37:53.555,2023-09-18 11:38:02.785,9.23,47,right,7000,14000,V,"[(4, 0), (4, 1), (3, 1), (3, 0), (2, 0), (2, 1), (1, 1), (1, 0), (4, 2)]","[(4, 0), (4, 1), (3, 1), (3, 0), (2, 0), (2, 1), (1, 1), (0, 1), (4, 2)]"
2,55,right,True,2023-09-18 11:38:19.821,2023-09-18 11:38:27.018,7.197,33,right,7000,14000,V,"[(4, 2), (4, 3), (3, 3), (3, 2), (2, 2), (2, 3), (1, 3), (1, 4), (0, 1)]","[(4, 2), (4, 3), (3, 3), (3, 2), (2, 2), (1, 2), (1, 3), (1, 4), (0, 1)]"
2,56,left,False,2023-09-18 11:38:44.051,2023-09-18 11:38:51.937,7.886,5,right,7000,14000,VH,"[(1, 1), (2, 1), (2, 2), (1, 2), (1, 3), (2, 3), (2, 4), (1, 4), (0, 2)]","[(1, 1), (2, 1), (2, 2), (1, 2), (1, 3), (2, 3), (2, 4), (3, 4), (0, 2)]"
2,57,left,True,2023-09-18 11:39:08.972,2023-09-18 11:39:12.770,3.798,76,left,7000,14000,VH,"[(1, 3), (2, 3), (2, 2), (3, 2), (3, 1), (2, 1), (2, 0), (3, 0), (1, 4)]","[(1, 3), (2, 3), (3, 3), (3, 2), (3, 1), (2, 1), (2, 0), (3, 0), (1, 4)]"
2,58,right,True,2023-09-18 11:39:29.805,2023-09-18 11:39:38.035,8.23,70,right,7000,14000,VH,"[(0, 0), (1, 0), (1, 1), (0, 1), (0, 2), (1, 2), (1, 3), (0, 3), (3, 1)]","[(0, 0), (1, 0), (1, 1), (0, 1), (0, 2), (1, 2), (1, 3), (0, 3), (3, 2)]"
2,59,left,True,2023-09-18 11:39:55.069,2023-09-18 11:40:02.123,7.054,85,left,7000,14000,VH,"[(2, 1), (2, 0), (3, 0), (3, 1), (4, 1), (4, 2), (3, 2), (2, 2), (4, 3)]","[(2, 1), (2, 0), (3, 0), (4, 0), (4, 1), (4, 2), (3, 2), (2, 2), (4, 3)]"
2,60,right,True,2023-09-18 11:40:19.157,2023-09-18 11:40:25.338,6.181,31,right,7000,14000,VH,"[(3, 2), (2, 2), (2, 3), (3, 3), (3, 4), (4, 4), (4, 3), (4, 2), (0, 4)]","[(3, 2), (2, 2), (2, 3), (2, 4), (3, 4), (4, 4), (4, 3), (4, 2), (0, 4)]"
2,61,left,True,2023-09-18 11:43:53.122,2023-09-18 11:44:05.117,11.995,36,left,7000,14000,H,"[(2, 3), (2, 4), (1, 4), (1, 3), (0, 3), (0, 2), (1, 2), (2, 2), (2, 0)]","[(2, 3), (2, 4), (1, 4), (0, 4), (0, 3), (0, 2), (1, 2), (2, 2), (2, 0)]"
2,62,left,True,2023-09-18 11:44:22.152,2023-09-18 11:44:34.604,12.452,49,left,7000,14000,H,"[(0, 0), (0, 1), (1, 1), (1, 0), (2, 0), (2, 1), (3, 1), (3, 2), (1, 3)]","[(0, 0), (0, 1), (1, 1), (1, 0), (2, 0), (3, 0), (3, 1), (3, 2), (1, 3)]"
2,63,left,False,2023-09-18 11:44:51.639,2023-09-18 11:45:07.579,15.94,79,right,7000,14000,H,"[(1, 1), (1, 2), (2, 2), (2, 1), (3, 1), (3, 2), (4, 2), (4, 1), (0, 4)]","[(1, 1), (1, 2), (2, 2), (2, 1), (3, 1), (3, 2), (4, 2), (4, 3), (0, 4)]"
2,64,right,True,2023-09-18 11:45:24.615,2023-09-18 11:45:38.140,13.525,88,right,7000,14000,H,"[(3, 4), (4, 4), (4, 3), (3, 3), (3, 2), (2, 2), (2, 1), (3, 1), (0, 3)]","[(3, 4), (4, 4), (4, 3), (4, 2), (3, 2), (2, 2), (2, 1), (3, 1), (0, 3)]"
2,65,left,True,2023-09-18 11:45:55.168,2023-09-18 11:46:10.131,14.963,12,left,7000,14000,H,"[(2, 4), (1, 4), (1, 3), (0, 3), (0, 2), (1, 2), (1, 1), (1, 0), (4, 0)]","[(2, 4), (1, 4), (0, 4), (0, 3), (0, 2), (1, 2), (1, 1), (1, 0), (4, 0)]"
2,66,left,True,2023-09-18 11:46:27.166,2023-09-18 11:46:37.263,10.097,34,left,7000,14000,V,"[(0, 2), (1, 2), (1, 3), (2, 3), (2, 4), (3, 4), (3, 3), (3, 2), (4, 0)]","[(0, 2), (1, 2), (2, 2), (2, 3), (2, 4), (3, 4), (3, 3), (3, 2), (4, 0)]"
2,67,right,True,2023-09-18 11:46:54.299,2023-09-18 11:47:02.450,8.151,11,right,7000,14000,V,"[(1, 0), (1, 1), (2, 1), (2, 2), (1, 2), (1, 3), (0, 3), (0, 2), (4, 3)]","[(1, 0), (1, 1), (2, 1), (2, 2), (2, 3), (1, 3), (0, 3), (0, 2), (4, 3)]"
2,68,left,True,2023-09-18 11:47:19.484,2023-09-18 11:47:25.903,6.419,16,left,7000,14000,V,"[(0, 0), (1, 0), (1, 1), (2, 1), (2, 0), (3, 0), (3, 1), (3, 2), (0, 3)]","[(0, 0), (1, 0), (1, 1), (2, 1), (2, 0), (3, 0), (3, 1), (4, 1), (0, 3)]"
2,69,right,True,2023-09-18 11:47:42.939,2023-09-18 11:47:51.846,8.907,46,right,7000,14000,V,"[(4, 1), (4, 2), (3, 2), (3, 1), (2, 1), (2, 0), (1, 0), (1, 1), (0, 1)]","[(4, 1), (4, 2), (3, 2), (2, 2), (2, 1), (2, 0), (1, 0), (1, 1), (0, 1)]"
2,70,left,True,2023-09-18 11:48:08.882,2023-09-18 11:48:12.790,3.908,24,left,7000,14000,V,"[(1, 4), (2, 4), (2, 3), (1, 3), (1, 2), (2, 2), (2, 1), (3, 1), (3, 0)]","[(1, 4), (2, 4), (2, 3), (1, 3), (1, 2), (1, 1), (2, 1), (3, 1), (3, 0)]"
2,71,left,True,2023-09-18 11:48:29.825,2023-09-18 11:48:34.755,4.93,86,left,7000,14000,VH,"[(2, 3), (2, 2), (3, 2), (3, 3), (4, 3), (4, 4), (3, 4), (2, 4), (2, 0)]","[(2, 3), (2, 2), (3, 2), (4, 2), (4, 3), (4, 4), (3, 4), (2, 4), (2, 0)]"
2,72,right,True,2023-09-18 11:48:51.791,2023-09-18 11:48:58.609,6.818,14,right,7000,14000,VH,"[(0, 3), (0, 4), (1, 4), (1, 3), (2, 3), (2, 2), (3, 2), (3, 3), (0, 0)]","[(0, 3), (0, 4), (1, 4), (2, 4), (2, 3), (2, 2), (3, 2), (3, 3), (0, 0)]"
2,73,left,True,2023-09-18 11:49:15.640,2023-09-18 11:49:22.985,7.345,65,left,7000,14000,VH,"[(0, 0), (0, 1), (1, 1), (1, 0), (2, 0), (2, 1), (3, 1), (4, 1), (3, 3)]","[(0, 0), (0, 1), (1, 1), (1, 0), (2, 0), (3, 0), (3, 1), (4, 1), (3, 3)]"
2,74,left,True,2023-09-18 11:49:40.021,2023-09-18 11:49:47.005,6.984,64,left,7000,14000,VH,"[(4, 0), (4, 1), (3, 1), (3, 2), (4, 2), (4, 3), (3, 3), (3, 4), (0, 2)]","[(4, 0), (4, 1), (3, 1), (3, 2), (4, 2), (4, 3), (3, 3), (2, 3), (0, 2)]"
2,75,left,True,2023-09-18 11:50:04.042,2023-09-18 11:50:07.616,3.574,18,left,7000,14000,VH,"[(4, 1), (3, 1), (3, 2), (4, 2), (4, 3), (3, 3), (3, 4), (2, 4), (2, 2)]","[(4, 1), (3, 1), (3, 2), (4, 2), (4, 3), (4, 4), (3, 4), (2, 4), (2, 2)]"
2,76,right,True,2023-09-18 11:53:52.438,2023-09-18 11:54:00.911,8.473,66,right,7000,14000,V,"[(3, 0), (4, 0), (4, 1), (3, 1), (3, 2), (4, 2), (4, 3), (3, 3), (2, 2)]","[(3, 0), (4, 0), (4, 1), (3, 1), (3, 2), (4, 2), (4, 3), (4, 4), (2, 2)]"
2,77,right,True,2023-09-18 11:54:17.948,2023-09-18 11:54:24.476,6.528,23,right,7000,14000,V,"[(4, 2), (4, 1), (3, 1), (3, 2), (2, 2), (2, 1), (1, 1), (1, 0), (2, 0)]","[(4, 2), (4, 1), (3, 1), (3, 2), (2, 2), (1, 2), (1, 1), (1, 0), (2, 0)]"
2,78,right,True,2023-09-18 11:54:41.512,2023-09-18 11:54:47.686,6.174,29,right,7000,14000,V,"[(2, 2), (1, 2), (1, 1), (2, 1), (2, 0), (3, 0), (3, 1), (3, 2), (4, 4)]","[(2, 2), (1, 2), (1, 1), (1, 0), (2, 0), (3, 0), (3, 1), (3, 2), (4, 4)]"
2,79,right,True,2023-09-18 11:55:04.715,2023-09-18 11:55:11.152,6.437,51,right,7000,14000,V,"[(2, 0), (1, 0), (1, 1), (2, 1), (2, 2), (3, 2), (3, 1), (4, 1), (0, 3)]","[(2, 0), (1, 0), (1, 1), (1, 2), (2, 2), (3, 2), (3, 1), (4, 1), (0, 3)]"
2,80,left,True,2023-09-18 11:55:28.186,2023-09-18 11:55:33.527,5.341,81,left,7000,14000,V,"[(4, 0), (4, 1), (3, 1), (3, 2), (4, 2), (4, 3), (3, 3), (3, 4), (1, 3)]","[(4, 0), (4, 1), (3, 1), (3, 2), (4, 2), (4, 3), (3, 3), (2, 3), (1, 3)]"
2,81,right,True,2023-09-18 11:55:50.563,2023-09-18 11:56:00.348,9.785,15,right,7000,14000,VH,"[(4, 3), (4, 2), (3, 2), (3, 3), (2, 3), (2, 4), (1, 4), (0, 4), (1, 0)]","[(4, 3), (4, 2), (3, 2), (2, 2), (2, 3), (2, 4), (1, 4), (0, 4), (1, 0)]"
2,82,right,True,2023-09-18 11:56:17.384,2023-09-18 11:56:23.358,5.974,62,right,7000,14000,VH,"[(1, 0), (2, 0), (2, 1), (3, 1), (3, 2), (2, 2), (2, 3), (2, 4), (0, 1)]","[(1, 0), (2, 0), (3, 0), (3, 1), (3, 2), (2, 2), (2, 3), (2, 4), (0, 1)]"
2,83,left,True,2023-09-18 11:56:40.394,2023-09-18 11:56:42.578,2.184,28,left,7000,14000,VH,"[(0, 4), (0, 3), (1, 3), (1, 2), (0, 2), (0, 1), (1, 1), (1, 0), (3, 1)]","[(0, 4), (0, 3), (1, 3), (1, 2), (0, 2), (0, 1), (1, 1), (2, 1), (3, 1)]"
2,84,right,True,2023-09-18 11:56:59.617,2023-09-18 11:57:05.133,5.516,68,right,7000,14000,VH,"[(0, 3), (0, 2), (1, 2), (1, 3), (2, 3), (2, 4), (1, 4), (0, 4), (4, 4)]","[(0, 3), (0, 2), (1, 2), (2, 2), (2, 3), (2, 4), (1, 4), (0, 4), (4, 4)]"
2,85,right,True,2023-09-18 11:57:22.170,2023-09-18 11:57:29.653,7.483,77,right,7000,14000,VH,"[(1, 1), (2, 1), (2, 2), (1, 2), (1, 3), (2, 3), (2, 4), (1, 4), (4, 3)]","[(1, 1), (2, 1), (2, 2), (1, 2), (1, 3), (2, 3), (2, 4), (3, 4), (4, 3)]"
2,86,left,True,2023-09-18 11:57:46.690,2023-09-18 11:57:59.896,13.206,19,left,7000,14000,H,"[(4, 4), (4, 3), (3, 3), (3, 2), (2, 2), (2, 1), (3, 1), (3, 0), (0, 0)]","[(4, 4), (4, 3), (4, 2), (3, 2), (2, 2), (2, 1), (3, 1), (3, 0), (0, 0)]"
2,87,left,True,2023-09-18 11:58:16.931,2023-09-18 11:58:29.372,12.441,25,left,7000,14000,H,"[(0, 3), (0, 2), (1, 2), (1, 3), (2, 3), (2, 2), (3, 2), (3, 1), (0, 0)]","[(0, 3), (0, 2), (1, 2), (1, 3), (2, 3), (3, 3), (3, 2), (3, 1), (0, 0)]"
2,88,left,False,2023-09-18 11:58:46.407,2023-09-18 11:59:00.369,13.962,50,right,7000,14000,H,"[(4, 4), (4, 3), (3, 3), (3, 2), (2, 2), (2, 3), (1, 3), (1, 4), (0, 3)]","[(4, 4), (4, 3), (3, 3), (3, 2), (2, 2), (2, 3), (1, 3), (1, 4), (0, 4)]"
2,89,right,True,2023-09-18 11:59:17.405,2023-09-18 11:59:28.234,10.829,39,right,7000,14000,H,"[(4, 0), (4, 1), (3, 1), (3, 0), (2, 0), (2, 1), (1, 1), (0, 1), (1, 3)]","[(4, 0), (4, 1), (3, 1), (3, 0), (2, 0), (1, 0), (1, 1), (0, 1), (1, 3)]"
2,90,left,False,2023-09-18 11:59:45.270,2023-09-18 11:59:57.477,12.207,1,right,7000,14000,H,"[(4, 2), (4, 3), (3, 3), (3, 2), (2, 2), (2, 1), (1, 1), (1, 0), (0, 1)]","[(4, 2), (4, 3), (3, 3), (2, 3), (2, 2), (2, 1), (1, 1), (1, 0), (0, 1)]"
3,1,left,False,2023-09-18 12:44:48.862,2023-09-18 12:45:01.069,12.207,59,right,7000,14000,V,"[(0, 4), (0, 3), (1, 3), (1, 4), (2, 4), (2, 3), (3, 3), (3, 2), (2, 1)]","[(0, 4), (0, 3), (1, 3), (1, 4), (2, 4), (3, 4), (3, 3), (3, 2), (2, 1)]"
3,2,right,False,2023-09-18 12:45:18.105,2023-09-18 12:45:31.222,13.117,82,left,7000,14000,V,"[(1, 0), (1, 1), (2, 1), (2, 0), (3, 0), (3, 1), (4, 1), (4, 0), (0, 3)]","[(1, 0), (1, 1), (2, 1), (2, 0), (3, 0), (3, 1), (4, 1), (4, 2), (0, 3)]"
3,3,right,True,2023-09-18 12:45:48.258,2023-09-18 12:45:54.443,6.185,35,right,7000,14000,V,"[(4, 4), (4, 3), (3, 3), (3, 4), (2, 4), (2, 3), (1, 3), (0, 3), (1, 2)]","[(4, 4), (4, 3), (3, 3), (3, 4), (2, 4), (1, 4), (1, 3), (0, 3), (1, 2)]"
3,4,left,True,2023-09-18 12:46:11.479,2023-09-18 12:46:19.007,7.528,8,left,7000,14000,V,"[(1, 4), (2, 4), (2, 3), (1, 3), (1, 2), (0, 2), (0, 3), (0, 4), (1, 0)]","[(1, 4), (2, 4), (2, 3), (2, 2), (1, 2), (0, 2), (0, 3), (0, 4), (1, 0)]"
3,5,right,False,2023-09-18 12:46:36.044,2023-09-18 12:46:43.673,7.629,48,left,7000,14000,V,"[(2, 3), (2, 4), (3, 4), (3, 3), (4, 3), (4, 2), (3, 2), (2, 2), (0, 1)]","[(2, 3), (2, 4), (3, 4), (4, 4), (4, 3), (4, 2), (3, 2), (2, 2), (0, 1)]"
3,6,right,True,2023-09-18 12:47:00.710,2023-09-18 12:47:11.450,10.74,17,right,7000,14000,VH,"[(1, 0), (2, 0), (2, 1), (1, 1), (1, 2), (2, 2), (2, 3), (3, 3), (0, 1)]","[(1, 0), (2, 0), (2, 1), (1, 1), (1, 2), (1, 3), (2, 3), (3, 3), (0, 1)]"
3,7,left,True,2023-09-18 12:47:28.486,2023-09-18 12:47:36.691,8.205,9,left,7000,14000,VH,"[(3, 2), (4, 2), (4, 1), (3, 1), (3, 0), (2, 0), (2, 1), (2, 2), (3, 3)]","[(3, 2), (4, 2), (4, 1), (4, 0), (3, 0), (2, 0), (2, 1), (2, 2), (3, 3)]"
3,8,right,True,2023-09-18 12:47:53.727,2023-09-18 12:47:57.869,4.142,7,right,7000,14000,VH,"[(1, 4), (1, 3), (2, 3), (2, 2), (3, 2), (3, 1), (2, 1), (1, 1), (2, 0)]","[(1, 4), (1, 3), (1, 2), (2, 2), (3, 2), (3, 1), (2, 1), (1, 1), (2, 0)]"
3,9,right,True,2023-09-18 12:48:14.904,2023-09-18 12:48:26.822,11.918,87,right,7000,14000,VH,"[(4, 1), (4, 2), (3, 2), (3, 1), (2, 1), (2, 2), (1, 2), (1, 1), (2, 0)]","[(4, 1), (4, 2), (3, 2), (3, 1), (2, 1), (2, 2), (1, 2), (0, 2), (2, 0)]"
3,10,left,True,2023-09-18 12:48:43.846,2023-09-18 12:48:53.142,9.296,3,left,7000,14000,VH,"[(3, 4), (3, 3), (2, 3), (2, 4), (1, 4), (1, 3), (0, 3), (0, 2), (3, 2)]","[(3, 4), (3, 3), (2, 3), (2, 4), (1, 4), (0, 4), (0, 3), (0, 2), (3, 2)]"
3,11,left,False,2023-09-18 12:49:10.178,2023-09-18 12:49:20.818,10.64,78,right,7000,14000,H,"[(3, 2), (4, 2), (4, 3), (3, 3), (3, 4), (2, 4), (2, 3), (1, 3), (1, 1)]","[(3, 2), (4, 2), (4, 3), (4, 4), (3, 4), (2, 4), (2, 3), (1, 3), (1, 1)]"
3,12,right,True,2023-09-18 12:49:37.854,2023-09-18 12:49:49.738,11.884,50,right,7000,14000,H,"[(4, 4), (4, 3), (3, 3), (3, 2), (2, 2), (2, 3), (1, 3), (1, 4), (0, 3)]","[(4, 4), (4, 3), (3, 3), (3, 2), (2, 2), (2, 3), (1, 3), (1, 4), (0, 4)]"
3,13,left,True,2023-09-18 12:50:06.774,2023-09-18 12:50:16.802,10.028,26,left,7000,14000,H,"[(1, 3), (1, 2), (2, 2), (2, 1), (3, 1), (3, 0), (2, 0), (1, 0), (4, 0)]","[(1, 3), (1, 2), (1, 1), (2, 1), (3, 1), (3, 0), (2, 0), (1, 0), (4, 0)]"
3,14,right,True,2023-09-18 12:50:33.838,2023-09-18 12:50:40.458,6.62,74,right,7000,14000,H,"[(0, 0), (0, 1), (1, 1), (1, 0), (2, 0), (2, 1), (3, 1), (4, 1), (4, 4)]","[(0, 0), (0, 1), (1, 1), (1, 0), (2, 0), (3, 0), (3, 1), (4, 1), (4, 4)]"
3,15,right,True,2023-09-18 12:50:57.494,2023-09-18 12:51:08.945,11.451,38,right,7000,14000,H,"[(0, 0), (1, 0), (1, 1), (2, 1), (2, 2), (1, 2), (1, 3), (1, 4), (4, 2)]","[(0, 0), (1, 0), (2, 0), (2, 1), (2, 2), (1, 2), (1, 3), (1, 4), (4, 2)]"
3,16,left,True,2023-09-18 12:54:35.957,2023-09-18 12:54:41.275,5.318,4,left,7000,14000,V,"[(4, 3), (4, 2), (3, 2), (3, 3), (2, 3), (2, 2), (1, 2), (1, 3), (4, 4)]","[(4, 3), (4, 2), (3, 2), (3, 3), (2, 3), (2, 2), (1, 2), (0, 2), (4, 4)]"
3,17,right,True,2023-09-18 12:54:58.311,2023-09-18 12:55:04.273,5.962,37,right,7000,14000,V,"[(4, 0), (4, 1), (3, 1), (3, 2), (2, 2), (2, 3), (3, 3), (4, 3), (2, 1)]","[(4, 0), (4, 1), (4, 2), (3, 2), (2, 2), (2, 3), (3, 3), (4, 3), (2, 1)]"
3,18,left,True,2023-09-18 12:55:21.310,2023-09-18 12:55:27.228,5.918,90,left,7000,14000,V,"[(4, 0), (4, 1), (3, 1), (3, 2), (2, 2), (2, 3), (1, 3), (0, 3), (3, 3)]","[(4, 0), (4, 1), (3, 1), (3, 2), (2, 2), (2, 3), (1, 3), (0, 3), (3, 4)]"
3,19,left,False,2023-09-18 12:55:44.253,2023-09-18 12:55:54.527,10.274,89,right,7000,14000,V,"[(0, 3), (0, 4), (1, 4), (1, 3), (2, 3), (2, 2), (3, 2), (3, 1), (2, 0)]","[(0, 3), (0, 4), (1, 4), (2, 4), (2, 3), (2, 2), (3, 2), (3, 1), (2, 0)]"
3,20,left,False,2023-09-18 12:56:11.562,2023-09-18 12:56:20.647,9.085,58,right,7000,14000,V,"[(0, 1), (0, 0), (1, 0), (1, 1), (2, 1), (2, 0), (3, 0), (4, 0), (2, 3)]","[(0, 1), (0, 0), (1, 0), (1, 1), (2, 1), (3, 1), (3, 0), (4, 0), (2, 3)]"
3,21,left,True,2023-09-18 12:56:37.683,2023-09-18 12:56:45.933,8.25,71,left,7000,14000,H,"[(0, 1), (1, 1), (1, 2), (2, 2), (2, 1), (3, 1), (3, 0), (4, 0), (0, 4)]","[(0, 1), (1, 1), (1, 2), (2, 2), (3, 2), (3, 1), (3, 0), (4, 0), (0, 4)]"
3,22,left,False,2023-09-18 12:57:02.970,2023-09-18 12:57:13.277,10.307,69,right,7000,14000,H,"[(3, 4), (2, 4), (2, 3), (1, 3), (1, 2), (2, 2), (2, 1), (3, 1), (0, 2)]","[(3, 4), (2, 4), (1, 4), (1, 3), (1, 2), (2, 2), (2, 1), (3, 1), (0, 2)]"
3,23,left,True,2023-09-18 12:57:30.312,2023-09-18 12:57:45.329,15.017,67,left,7000,14000,H,"[(0, 2), (0, 3), (1, 3), (1, 2), (2, 2), (2, 1), (1, 1), (1, 0), (0, 4)]","[(0, 2), (0, 3), (1, 3), (2, 3), (2, 2), (2, 1), (1, 1), (1, 0), (0, 4)]"
3,24,right,True,2023-09-18 12:58:02.367,2023-09-18 12:58:10.094,7.727,53,right,7000,14000,H,"[(1, 4), (2, 4), (2, 3), (3, 3), (3, 2), (4, 2), (4, 1), (4, 0), (1, 0)]","[(1, 4), (2, 4), (3, 4), (3, 3), (3, 2), (4, 2), (4, 1), (4, 0), (1, 0)]"
3,25,right,False,2023-09-18 12:58:27.131,2023-09-18 12:58:34.669,7.538,6,left,7000,14000,H,"[(4, 4), (4, 3), (3, 3), (3, 2), (2, 2), (2, 3), (1, 3), (1, 2), (1, 1)]","[(4, 4), (4, 3), (4, 2), (3, 2), (2, 2), (2, 3), (1, 3), (1, 2), (1, 1)]"
3,26,left,True,2023-09-18 12:58:51.698,2023-09-18 12:59:00.537,8.839,70,left,7000,14000,VH,"[(0, 0), (1, 0), (1, 1), (0, 1), (0, 2), (1, 2), (1, 3), (0, 3), (3, 1)]","[(0, 0), (1, 0), (1, 1), (0, 1), (0, 2), (1, 2), (1, 3), (0, 3), (3, 2)]"
3,27,left,True,2023-09-18 12:59:17.573,2023-09-18 12:59:24.913,7.34,72,left,7000,14000,VH,"[(4, 1), (4, 2), (3, 2), (3, 1), (2, 1), (2, 2), (1, 2), (0, 2), (0, 1)]","[(4, 1), (4, 2), (3, 2), (3, 1), (2, 1), (1, 1), (1, 2), (0, 2), (0, 1)]"
3,28,right,False,2023-09-18 12:59:41.949,2023-09-18 12:59:51.055,9.106,27,left,7000,14000,VH,"[(0, 4), (0, 3), (1, 3), (1, 2), (2, 2), (2, 1), (1, 1), (1, 0), (4, 0)]","[(0, 4), (0, 3), (0, 2), (1, 2), (2, 2), (2, 1), (1, 1), (1, 0), (4, 0)]"
3,29,right,False,2023-09-18 13:00:08.092,2023-09-18 13:00:15.975,7.883,42,left,7000,14000,VH,"[(0, 3), (0, 4), (1, 4), (1, 3), (2, 3), (2, 2), (3, 2), (3, 3), (4, 2)]","[(0, 3), (0, 4), (1, 4), (2, 4), (2, 3), (2, 2), (3, 2), (3, 3), (4, 2)]"
3,30,right,False,2023-09-18 13:00:33.012,2023-09-18 13:00:39.308,6.296,13,left,7000,14000,VH,"[(4, 1), (4, 0), (3, 0), (3, 1), (2, 1), (2, 2), (3, 2), (3, 3), (0, 3)]","[(4, 1), (4, 0), (3, 0), (2, 0), (2, 1), (2, 2), (3, 2), (3, 3), (0, 3)]"
3,31,right,True,2023-09-18 13:02:31.893,2023-09-18 13:02:37.325,5.432,32,right,7000,14000,H,"[(0, 4), (1, 4), (1, 3), (2, 3), (2, 4), (3, 4), (3, 3), (3, 2), (4, 2)]","[(0, 4), (1, 4), (1, 3), (2, 3), (2, 4), (3, 4), (3, 3), (4, 3), (4, 2)]"
3,32,right,True,2023-09-18 13:02:54.358,2023-09-18 13:03:01.388,7.03,43,right,7000,14000,H,"[(1, 3), (2, 3), (2, 2), (3, 2), (3, 3), (4, 3), (4, 4), (3, 4), (2, 4)]","[(1, 3), (2, 3), (2, 2), (3, 2), (4, 2), (4, 3), (4, 4), (3, 4), (2, 4)]"
3,33,left,False,2023-09-18 13:03:18.423,2023-09-18 13:03:26.830,8.407,41,right,7000,14000,H,"[(1, 0), (1, 1), (2, 1), (2, 2), (3, 2), (3, 1), (4, 1), (4, 0), (2, 3)]","[(1, 0), (1, 1), (1, 2), (2, 2), (3, 2), (3, 1), (4, 1), (4, 0), (2, 3)]"
3,34,right,False,2023-09-18 13:03:43.867,2023-09-18 13:03:51.461,7.594,56,left,7000,14000,H,"[(2, 0), (1, 0), (1, 1), (0, 1), (0, 2), (1, 2), (1, 3), (2, 3), (3, 4)]","[(2, 0), (1, 0), (0, 0), (0, 1), (0, 2), (1, 2), (1, 3), (2, 3), (3, 4)]"
3,35,right,False,2023-09-18 13:04:08.498,2023-09-18 13:04:19.804,11.306,20,left,7000,14000,H,"[(0, 1), (0, 2), (1, 2), (1, 3), (2, 3), (2, 2), (3, 2), (4, 2), (0, 0)]","[(0, 1), (0, 2), (1, 2), (1, 3), (2, 3), (2, 2), (3, 2), (4, 2), (1, 0)]"
3,36,left,False,2023-09-18 13:04:36.840,2023-09-18 13:04:47.525,10.685,55,right,7000,14000,VH,"[(3, 4), (4, 4), (4, 3), (3, 3), (3, 2), (4, 2), (4, 1), (4, 0), (2, 2)]","[(3, 4), (4, 4), (4, 3), (3, 3), (3, 2), (3, 1), (4, 1), (4, 0), (2, 2)]"
3,37,right,True,2023-09-18 13:05:04.561,2023-09-18 13:05:14.324,9.763,52,right,7000,14000,VH,"[(4, 4), (3, 4), (3, 3), (4, 3), (4, 2), (3, 2), (3, 1), (4, 1), (0, 4)]","[(4, 4), (3, 4), (3, 3), (4, 3), (4, 2), (3, 2), (3, 1), (2, 1), (0, 4)]"
3,38,right,True,2023-09-18 13:05:31.359,2023-09-18 13:05:37.813,6.454,45,right,7000,14000,VH,"[(0, 3), (0, 4), (1, 4), (1, 3), (2, 3), (2, 4), (3, 4), (4, 4), (3, 0)]","[(0, 3), (0, 4), (1, 4), (1, 3), (2, 3), (3, 3), (3, 4), (4, 4), (3, 0)]"
3,39,left,True,2023-09-18 13:05:54.846,2023-09-18 13:05:58.954,4.108,22,left,7000,14000,VH,"[(4, 0), (3, 0), (3, 1), (2, 1), (2, 0), (1, 0), (1, 1), (1, 2), (3, 4)]","[(4, 0), (3, 0), (3, 1), (2, 1), (2, 0), (1, 0), (1, 1), (0, 1), (3, 4)]"
3,40,right,True,2023-09-18 13:06:15.989,2023-09-18 13:06:25.630,9.641,61,right,7000,14000,VH,"[(2, 3), (3, 3), (3, 2), (2, 2), (2, 1), (3, 1), (3, 0), (2, 0), (1, 1)]","[(2, 3), (3, 3), (3, 2), (2, 2), (2, 1), (3, 1), (3, 0), (4, 0), (1, 1)]"
3,41,right,True,2023-09-18 13:06:42.666,2023-09-18 13:06:51.750,9.084,57,right,7000,14000,V,"[(4, 1), (4, 2), (3, 2), (3, 3), (2, 3), (2, 2), (1, 2), (0, 2), (0, 3)]","[(4, 1), (4, 2), (4, 3), (3, 3), (2, 3), (2, 2), (1, 2), (0, 2), (0, 3)]"
3,42,right,True,2023-09-18 13:07:08.785,2023-09-18 13:07:18.673,9.888,63,right,7000,14000,V,"[(0, 3), (1, 3), (1, 2), (0, 2), (0, 1), (1, 1), (1, 0), (0, 0), (2, 4)]","[(0, 3), (1, 3), (1, 2), (0, 2), (0, 1), (1, 1), (1, 0), (2, 0), (2, 4)]"
3,43,right,True,2023-09-18 13:07:35.706,2023-09-18 13:07:40.280,4.574,54,right,7000,14000,V,"[(4, 3), (3, 3), (3, 2), (2, 2), (2, 1), (1, 1), (1, 2), (0, 2), (1, 3)]","[(4, 3), (3, 3), (2, 3), (2, 2), (2, 1), (1, 1), (1, 2), (0, 2), (1, 3)]"
3,44,right,True,2023-09-18 13:07:57.317,2023-09-18 13:08:08.613,11.296,73,right,7000,14000,V,"[(4, 2), (4, 1), (3, 1), (3, 2), (2, 2), (2, 1), (1, 1), (1, 2), (1, 4)]","[(4, 2), (4, 1), (3, 1), (3, 2), (2, 2), (2, 1), (1, 1), (0, 1), (1, 4)]"
3,45,right,True,2023-09-18 13:08:25.647,2023-09-18 13:08:34.865,9.218,83,right,7000,14000,V,"[(3, 2), (4, 2), (4, 3), (3, 3), (3, 4), (2, 4), (2, 3), (2, 2), (0, 3)]","[(3, 2), (4, 2), (4, 3), (4, 4), (3, 4), (2, 4), (2, 3), (2, 2), (0, 3)]"
3,46,left,True,2023-09-18 13:10:49.227,2023-09-18 13:10:53.979,4.752,10,left,7000,14000,V,"[(4, 2), (4, 3), (3, 3), (3, 2), (2, 2), (2, 3), (1, 3), (0, 3), (4, 0)]","[(4, 2), (4, 3), (3, 3), (3, 2), (2, 2), (2, 3), (1, 3), (0, 3), (4, 1)]"
3,47,right,False,2023-09-18 13:11:11.015,2023-09-18 13:11:17.134,6.119,44,left,7000,14000,V,"[(4, 3), (4, 4), (3, 4), (3, 3), (2, 3), (2, 2), (3, 2), (4, 2), (4, 0)]","[(4, 3), (4, 4), (3, 4), (2, 4), (2, 3), (2, 2), (3, 2), (4, 2), (4, 0)]"
3,48,right,False,2023-09-18 13:11:34.156,2023-09-18 13:11:44.298,10.142,2,left,7000,14000,V,"[(4, 1), (4, 2), (3, 2), (3, 1), (2, 1), (2, 2), (1, 2), (1, 1), (4, 3)]","[(4, 1), (4, 2), (3, 2), (3, 1), (2, 1), (2, 2), (1, 2), (0, 2), (4, 3)]"
3,49,right,True,2023-09-18 13:12:01.335,2023-09-18 13:12:08.340,7.005,84,right,7000,14000,V,"[(2, 0), (1, 0), (1, 1), (2, 1), (2, 2), (1, 2), (1, 3), (1, 4), (0, 3)]","[(2, 0), (1, 0), (1, 1), (2, 1), (2, 2), (2, 3), (1, 3), (1, 4), (0, 3)]"
3,50,right,False,2023-09-18 13:12:25.377,2023-09-18 13:12:37.317,11.94,75,left,7000,14000,V,"[(0, 4), (1, 4), (1, 3), (2, 3), (2, 4), (3, 4), (3, 3), (4, 3), (3, 1)]","[(0, 4), (1, 4), (1, 3), (2, 3), (2, 4), (3, 4), (3, 3), (3, 2), (3, 1)]"
3,51,left,False,2023-09-18 13:12:54.355,2023-09-18 13:13:01.826,7.471,21,right,7000,14000,VH,"[(0, 4), (0, 3), (1, 3), (1, 2), (2, 2), (2, 1), (1, 1), (0, 1), (3, 1)]","[(0, 4), (0, 3), (0, 2), (1, 2), (2, 2), (2, 1), (1, 1), (0, 1), (3, 1)]"
3,52,right,False,2023-09-18 13:13:18.862,2023-09-18 13:13:28.024,9.162,47,left,7000,14000,VH,"[(4, 0), (4, 1), (3, 1), (3, 0), (2, 0), (2, 1), (1, 1), (1, 0), (4, 2)]","[(4, 0), (4, 1), (3, 1), (3, 0), (2, 0), (2, 1), (1, 1), (0, 1), (4, 2)]"
3,53,left,True,2023-09-18 13:13:45.060,2023-09-18 13:13:54.855,9.795,33,left,7000,14000,VH,"[(4, 2), (4, 3), (3, 3), (3, 2), (2, 2), (2, 3), (1, 3), (1, 4), (0, 1)]","[(4, 2), (4, 3), (3, 3), (3, 2), (2, 2), (1, 2), (1, 3), (1, 4), (0, 1)]"
3,54,left,True,2023-09-18 13:14:11.892,2023-09-18 13:14:17.821,5.929,40,left,7000,14000,VH,"[(0, 0), (1, 0), (1, 1), (0, 1), (0, 2), (1, 2), (1, 3), (0, 3), (4, 3)]","[(0, 0), (1, 0), (1, 1), (0, 1), (0, 2), (1, 2), (1, 3), (0, 3), (3, 3)]"
3,55,right,True,2023-09-18 13:14:34.858,2023-09-18 13:14:41.654,6.796,5,right,7000,14000,VH,"[(1, 1), (2, 1), (2, 2), (1, 2), (1, 3), (2, 3), (2, 4), (1, 4), (0, 2)]","[(1, 1), (2, 1), (2, 2), (1, 2), (1, 3), (2, 3), (2, 4), (3, 4), (0, 2)]"
3,56,right,True,2023-09-18 13:14:58.689,2023-09-18 13:15:08.063,9.374,76,right,7000,14000,H,"[(1, 3), (2, 3), (2, 2), (3, 2), (3, 1), (2, 1), (2, 0), (3, 0), (1, 4)]","[(1, 3), (2, 3), (3, 3), (3, 2), (3, 1), (2, 1), (2, 0), (3, 0), (1, 4)]"
3,57,right,False,2023-09-18 13:15:25.098,2023-09-18 13:15:35.884,10.786,85,left,7000,14000,H,"[(2, 1), (2, 0), (3, 0), (3, 1), (4, 1), (4, 2), (3, 2), (2, 2), (4, 3)]","[(2, 1), (2, 0), (3, 0), (4, 0), (4, 1), (4, 2), (3, 2), (2, 2), (4, 3)]"
3,58,right,False,2023-09-18 13:15:52.919,2023-09-18 13:16:02.004,9.085,31,left,7000,14000,H,"[(3, 2), (2, 2), (2, 3), (3, 3), (3, 4), (4, 4), (4, 3), (4, 2), (0, 4)]","[(3, 2), (2, 2), (2, 3), (2, 4), (3, 4), (4, 4), (4, 3), (4, 2), (0, 4)]"
3,59,left,True,2023-09-18 13:16:19.040,2023-09-18 13:16:27.268,8.228,36,left,7000,14000,H,"[(2, 3), (2, 4), (1, 4), (1, 3), (0, 3), (0, 2), (1, 2), (2, 2), (2, 0)]","[(2, 3), (2, 4), (1, 4), (0, 4), (0, 3), (0, 2), (1, 2), (2, 2), (2, 0)]"
3,60,left,True,2023-09-18 13:16:44.304,2023-09-18 13:16:52.045,7.741,49,left,7000,14000,H,"[(0, 0), (0, 1), (1, 1), (1, 0), (2, 0), (2, 1), (3, 1), (3, 2), (1, 3)]","[(0, 0), (0, 1), (1, 1), (1, 0), (2, 0), (3, 0), (3, 1), (3, 2), (1, 3)]"
3,61,right,True,2023-09-18 13:18:32.786,2023-09-18 13:18:37.238,4.452,79,right,7000,14000,VH,"[(1, 1), (1, 2), (2, 2), (2, 1), (3, 1), (3, 2), (4, 2), (4, 1), (0, 4)]","[(1, 1), (1, 2), (2, 2), (2, 1), (3, 1), (3, 2), (4, 2), (4, 3), (0, 4)]"
3,62,right,True,2023-09-18 13:18:54.274,2023-09-18 13:18:59.535,5.261,88,right,7000,14000,VH,"[(3, 4), (4, 4), (4, 3), (3, 3), (3, 2), (2, 2), (2, 1), (3, 1), (0, 3)]","[(3, 4), (4, 4), (4, 3), (4, 2), (3, 2), (2, 2), (2, 1), (3, 1), (0, 3)]"
3,63,right,True,2023-09-18 13:19:16.572,2023-09-18 13:19:23.778,7.206,12,right,7000,14000,VH,"[(2, 4), (1, 4), (1, 3), (0, 3), (0, 2), (1, 2), (1, 1), (1, 0), (4, 0)]","[(2, 4), (1, 4), (0, 4), (0, 3), (0, 2), (1, 2), (1, 1), (1, 0), (4, 0)]"
3,64,right,True,2023-09-18 13:19:40.814,2023-09-18 13:19:44.756,3.942,34,right,7000,14000,VH,"[(0, 2), (1, 2), (1, 3), (2, 3), (2, 4), (3, 4), (3, 3), (3, 2), (4, 0)]","[(0, 2), (1, 2), (2, 2), (2, 3), (2, 4), (3, 4), (3, 3), (3, 2), (4, 0)]"
3,65,right,False,2023-09-18 13:20:01.792,2023-09-18 13:20:11.420,9.628,11,left,7000,14000,VH,"[(1, 0), (1, 1), (2, 1), (2, 2), (1, 2), (1, 3), (0, 3), (0, 2), (4, 3)]","[(1, 0), (1, 1), (2, 1), (2, 2), (2, 3), (1, 3), (0, 3), (0, 2), (4, 3)]"
3,66,left,True,2023-09-18 13:20:28.456,2023-09-18 13:20:36.240,7.784,16,left,7000,14000,V,"[(0, 0), (1, 0), (1, 1), (2, 1), (2, 0), (3, 0), (3, 1), (3, 2), (0, 3)]","[(0, 0), (1, 0), (1, 1), (2, 1), (2, 0), (3, 0), (3, 1), (4, 1), (0, 3)]"
3,67,left,True,2023-09-18 13:20:53.277,2023-09-18 13:21:04.830,11.553,46,left,7000,14000,V,"[(4, 1), (4, 2), (3, 2), (3, 1), (2, 1), (2, 0), (1, 0), (1, 1), (0, 1)]","[(4, 1), (4, 2), (3, 2), (2, 2), (2, 1), (2, 0), (1, 0), (1, 1), (0, 1)]"
3,68,left,True,2023-09-18 13:21:21.864,2023-09-18 13:21:30.449,8.585,24,left,7000,14000,V,"[(1, 4), (2, 4), (2, 3), (1, 3), (1, 2), (2, 2), (2, 1), (3, 1), (3, 0)]","[(1, 4), (2, 4), (2, 3), (1, 3), (1, 2), (1, 1), (2, 1), (3, 1), (3, 0)]"
3,69,left,True,2023-09-18 13:21:47.485,2023-09-18 13:21:56.170,8.685,86,left,7000,14000,V,"[(2, 3), (2, 2), (3, 2), (3, 3), (4, 3), (4, 4), (3, 4), (2, 4), (2, 0)]","[(2, 3), (2, 2), (3, 2), (4, 2), (4, 3), (4, 4), (3, 4), (2, 4), (2, 0)]"
3,70,right,True,2023-09-18 13:22:13.206,2023-09-18 13:22:20.556,7.35,14,right,7000,14000,V,"[(0, 3), (0, 4), (1, 4), (1, 3), (2, 3), (2, 2), (3, 2), (3, 3), (0, 0)]","[(0, 3), (0, 4), (1, 4), (2, 4), (2, 3), (2, 2), (3, 2), (3, 3), (0, 0)]"
3,71,right,True,2023-09-18 13:22:37.592,2023-09-18 13:22:44.343,6.751,65,right,7000,14000,H,"[(0, 0), (0, 1), (1, 1), (1, 0), (2, 0), (2, 1), (3, 1), (4, 1), (3, 3)]","[(0, 0), (0, 1), (1, 1), (1, 0), (2, 0), (3, 0), (3, 1), (4, 1), (3, 3)]"
3,72,right,False,2023-09-18 13:23:01.379,2023-09-18 13:23:06.865,5.486,64,left,7000,14000,H,"[(4, 0), (4, 1), (3, 1), (3, 2), (4, 2), (4, 3), (3, 3), (3, 4), (0, 2)]","[(4, 0), (4, 1), (3, 1), (3, 2), (4, 2), (4, 3), (3, 3), (2, 3), (0, 2)]"
3,73,left,True,2023-09-18 13:23:23.899,2023-09-18 13:23:32.620,8.721,80,left,7000,14000,H,"[(4, 4), (4, 3), (3, 3), (3, 4), (2, 4), (2, 3), (1, 3), (1, 2), (0, 1)]","[(4, 4), (4, 3), (3, 3), (3, 4), (2, 4), (2, 3), (1, 3), (1, 2), (0, 2)]"
3,74,right,True,2023-09-18 13:23:49.654,2023-09-18 13:23:57.705,8.051,18,right,7000,14000,H,"[(4, 1), (3, 1), (3, 2), (4, 2), (4, 3), (3, 3), (3, 4), (2, 4), (2, 2)]","[(4, 1), (3, 1), (3, 2), (4, 2), (4, 3), (4, 4), (3, 4), (2, 4), (2, 2)]"
3,75,right,True,2023-09-18 13:24:14.730,2023-09-18 13:24:19.637,4.907,66,right,7000,14000,H,"[(3, 0), (4, 0), (4, 1), (3, 1), (3, 2), (4, 2), (4, 3), (3, 3), (2, 2)]","[(3, 0), (4, 0), (4, 1), (3, 1), (3, 2), (4, 2), (4, 3), (4, 4), (2, 2)]"
3,76,left,True,2023-09-18 13:25:49.827,2023-09-18 13:25:53.998,4.171,23,left,7000,14000,H,"[(4, 2), (4, 1), (3, 1), (3, 2), (2, 2), (2, 1), (1, 1), (1, 0), (2, 0)]","[(4, 2), (4, 1), (3, 1), (3, 2), (2, 2), (1, 2), (1, 1), (1, 0), (2, 0)]"
3,77,left,True,2023-09-18 13:26:11.023,2023-09-18 13:26:17.286,6.263,29,left,7000,14000,H,"[(2, 2), (1, 2), (1, 1), (2, 1), (2, 0), (3, 0), (3, 1), (3, 2), (4, 4)]","[(2, 2), (1, 2), (1, 1), (1, 0), (2, 0), (3, 0), (3, 1), (3, 2), (4, 4)]"
3,78,left,False,2023-09-18 13:26:34.321,2023-09-18 13:26:45.639,11.318,51,right,7000,14000,H,"[(2, 0), (1, 0), (1, 1), (2, 1), (2, 2), (3, 2), (3, 1), (4, 1), (0, 3)]","[(2, 0), (1, 0), (1, 1), (1, 2), (2, 2), (3, 2), (3, 1), (4, 1), (0, 3)]"
3,79,left,False,2023-09-18 13:27:02.676,2023-09-18 13:27:09.193,6.517,81,right,7000,14000,H,"[(4, 0), (4, 1), (3, 1), (3, 2), (4, 2), (4, 3), (3, 3), (3, 4), (1, 3)]","[(4, 0), (4, 1), (3, 1), (3, 2), (4, 2), (4, 3), (3, 3), (2, 3), (1, 3)]"
3,80,right,False,2023-09-18 13:27:26.231,2023-09-18 13:27:33.427,7.196,15,left,7000,14000,H,"[(4, 3), (4, 2), (3, 2), (3, 3), (2, 3), (2, 4), (1, 4), (0, 4), (1, 0)]","[(4, 3), (4, 2), (3, 2), (2, 2), (2, 3), (2, 4), (1, 4), (0, 4), (1, 0)]"
3,81,left,False,2023-09-18 13:27:50.461,2023-09-18 13:27:56.802,6.341,62,right,7000,14000,V,"[(1, 0), (2, 0), (2, 1), (3, 1), (3, 2), (2, 2), (2, 3), (2, 4), (0, 1)]","[(1, 0), (2, 0), (3, 0), (3, 1), (3, 2), (2, 2), (2, 3), (2, 4), (0, 1)]"
3,82,right,True,2023-09-18 13:28:13.836,2023-09-18 13:28:21.677,7.841,60,right,7000,14000,V,"[(3, 1), (3, 2), (4, 2), (4, 3), (3, 3), (3, 4), (2, 4), (2, 3), (0, 3)]","[(3, 1), (3, 2), (4, 2), (4, 3), (3, 3), (3, 4), (2, 4), (2, 3), (1, 3)]"
3,83,left,True,2023-09-18 13:28:38.713,2023-09-18 13:28:47.686,8.973,28,left,7000,14000,V,"[(0, 4), (0, 3), (1, 3), (1, 2), (0, 2), (0, 1), (1, 1), (1, 0), (3, 1)]","[(0, 4), (0, 3), (1, 3), (1, 2), (0, 2), (0, 1), (1, 1), (2, 1), (3, 1)]"
3,84,left,True,2023-09-18 13:29:04.722,2023-09-18 13:29:12.486,7.764,68,left,7000,14000,V,"[(0, 3), (0, 2), (1, 2), (1, 3), (2, 3), (2, 4), (1, 4), (0, 4), (4, 4)]","[(0, 3), (0, 2), (1, 2), (2, 2), (2, 3), (2, 4), (1, 4), (0, 4), (4, 4)]"
3,85,right,True,2023-09-18 13:29:29.519,2023-09-18 13:29:37.094,7.575,77,right,7000,14000,V,"[(1, 1), (2, 1), (2, 2), (1, 2), (1, 3), (2, 3), (2, 4), (1, 4), (4, 3)]","[(1, 1), (2, 1), (2, 2), (1, 2), (1, 3), (2, 3), (2, 4), (3, 4), (4, 3)]"
3,86,right,True,2023-09-18 13:29:54.119,2023-09-18 13:30:01.437,7.318,19,right,7000,14000,VH,"[(4, 4), (4, 3), (3, 3), (3, 2), (2, 2), (2, 1), (3, 1), (3, 0), (0, 0)]","[(4, 4), (4, 3), (4, 2), (3, 2), (2, 2), (2, 1), (3, 1), (3, 0), (0, 0)]"
3,87,left,True,2023-09-18 13:30:18.473,2023-09-18 13:30:25.469,6.996,25,left,7000,14000,VH,"[(0, 3), (0, 2), (1, 2), (1, 3), (2, 3), (2, 2), (3, 2), (3, 1), (0, 0)]","[(0, 3), (0, 2), (1, 2), (1, 3), (2, 3), (3, 3), (3, 2), (3, 1), (0, 0)]"
3,88,right,True,2023-09-18 13:30:42.506,2023-09-18 13:30:50.623,8.117,39,right,7000,14000,VH,"[(4, 0), (4, 1), (3, 1), (3, 0), (2, 0), (2, 1), (1, 1), (0, 1), (1, 3)]","[(4, 0), (4, 1), (3, 1), (3, 0), (2, 0), (1, 0), (1, 1), (0, 1), (1, 3)]"
3,89,left,True,2023-09-18 13:31:07.660,2023-09-18 13:31:14.911,7.251,30,left,7000,14000,VH,"[(1, 4), (0, 4), (0, 3), (1, 3), (1, 2), (0, 2), (0, 1), (0, 0), (4, 0)]","[(1, 4), (0, 4), (0, 3), (1, 3), (1, 2), (0, 2), (0, 1), (0, 0), (3, 0)]"
3,90,left,True,2023-09-18 13:31:31.946,2023-09-18 13:31:40.175,8.229,1,left,7000,14000,VH,"[(4, 2), (4, 3), (3, 3), (3, 2), (2, 2), (2, 1), (1, 1), (1, 0), (0, 1)]","[(4, 2), (4, 3), (3, 3), (2, 3), (2, 2), (2, 1), (1, 1), (1, 0), (0, 1)]"
4,1,left,True,2023-09-19 08:36:33.359,2023-09-19 08:36:42.386,9.027,59,left,7000,14000,V,"[(0, 4), (0, 3), (1, 3), (1, 4), (2, 4), (2, 3), (3, 3), (3, 2), (2, 1)]","[(0, 4), (0, 3), (1, 3), (1, 4), (2, 4), (3, 4), (3, 3), (3, 2), (2, 1)]"
4,2,right,True,2023-09-19 08:36:59.423,2023-09-19 08:37:10.039,10.616,82,right,7000,14000,V,"[(1, 0), (1, 1), (2, 1), (2, 0), (3, 0), (3, 1), (4, 1), (4, 0), (0, 3)]","[(1, 0), (1, 1), (2, 1), (2, 0), (3, 0), (3, 1), (4, 1), (4, 2), (0, 3)]"
4,3,right,True,2023-09-19 08:37:27.076,2023-09-19 08:37:34.338,7.262,35,right,7000,14000,V,"[(4, 4), (4, 3), (3, 3), (3, 4), (2, 4), (2, 3), (1, 3), (0, 3), (1, 2)]","[(4, 4), (4, 3), (3, 3), (3, 4), (2, 4), (1, 4), (1, 3), (0, 3), (1, 2)]"
4,4,left,True,2023-09-19 08:37:51.376,2023-09-19 08:37:59.583,8.207,8,left,7000,14000,V,"[(1, 4), (2, 4), (2, 3), (1, 3), (1, 2), (0, 2), (0, 3), (0, 4), (1, 0)]","[(1, 4), (2, 4), (2, 3), (2, 2), (1, 2), (0, 2), (0, 3), (0, 4), (1, 0)]"
4,5,right,True,2023-09-19 08:38:16.618,2023-09-19 08:38:23.712,7.094,48,right,7000,14000,V,"[(2, 3), (2, 4), (3, 4), (3, 3), (4, 3), (4, 2), (3, 2), (2, 2), (0, 1)]","[(2, 3), (2, 4), (3, 4), (4, 4), (4, 3), (4, 2), (3, 2), (2, 2), (0, 1)]"
4,6,left,True,2023-09-19 08:38:40.750,2023-09-19 08:38:57.666,16.916,80,left,7000,14000,H,"[(4, 4), (4, 3), (3, 3), (3, 4), (2, 4), (2, 3), (1, 3), (1, 2), (0, 1)]","[(4, 4), (4, 3), (3, 3), (3, 4), (2, 4), (2, 3), (1, 3), (1, 2), (0, 2)]"
4,7,left,True,2023-09-19 08:39:14.703,2023-09-19 08:39:30.642,15.939,20,left,7000,14000,H,"[(0, 1), (0, 2), (1, 2), (1, 3), (2, 3), (2, 2), (3, 2), (4, 2), (0, 0)]","[(0, 1), (0, 2), (1, 2), (1, 3), (2, 3), (2, 2), (3, 2), (4, 2), (1, 0)]"
4,8,right,True,2023-09-19 08:39:47.679,2023-09-19 08:40:03.196,15.517,17,right,7000,14000,H,"[(1, 0), (2, 0), (2, 1), (1, 1), (1, 2), (2, 2), (2, 3), (3, 3), (0, 1)]","[(1, 0), (2, 0), (2, 1), (1, 1), (1, 2), (1, 3), (2, 3), (3, 3), (0, 1)]"
4,9,right,True,2023-09-19 08:40:20.233,2023-09-19 08:40:33.704,13.471,9,right,7000,14000,H,"[(3, 2), (4, 2), (4, 1), (3, 1), (3, 0), (2, 0), (2, 1), (2, 2), (3, 3)]","[(3, 2), (4, 2), (4, 1), (4, 0), (3, 0), (2, 0), (2, 1), (2, 2), (3, 3)]"
4,10,left,True,2023-09-19 08:40:50.741,2023-09-19 08:41:05.969,15.228,7,left,7000,14000,H,"[(1, 4), (1, 3), (2, 3), (2, 2), (3, 2), (3, 1), (2, 1), (1, 1), (2, 0)]","[(1, 4), (1, 3), (1, 2), (2, 2), (3, 2), (3, 1), (2, 1), (1, 1), (2, 0)]"
4,11,right,True,2023-09-19 08:41:23.007,2023-09-19 08:41:33.389,10.382,87,right,7000,14000,VH,"[(4, 1), (4, 2), (3, 2), (3, 1), (2, 1), (2, 2), (1, 2), (1, 1), (2, 0)]","[(4, 1), (4, 2), (3, 2), (3, 1), (2, 1), (2, 2), (1, 2), (0, 2), (2, 0)]"
4,12,left,True,2023-09-19 08:41:50.428,2023-09-19 08:42:02.766,12.338,3,left,7000,14000,VH,"[(3, 4), (3, 3), (2, 3), (2, 4), (1, 4), (1, 3), (0, 3), (0, 2), (3, 2)]","[(3, 4), (3, 3), (2, 3), (2, 4), (1, 4), (0, 4), (0, 3), (0, 2), (3, 2)]"
4,13,right,True,2023-09-19 08:42:19.802,2023-09-19 08:42:36.341,16.539,78,right,7000,14000,VH,"[(3, 2), (4, 2), (4, 3), (3, 3), (3, 4), (2, 4), (2, 3), (1, 3), (1, 1)]","[(3, 2), (4, 2), (4, 3), (4, 4), (3, 4), (2, 4), (2, 3), (1, 3), (1, 1)]"
4,14,left,True,2023-09-19 08:42:53.367,2023-09-19 08:43:01.462,8.095,26,left,7000,14000,VH,"[(1, 3), (1, 2), (2, 2), (2, 1), (3, 1), (3, 0), (2, 0), (1, 0), (4, 0)]","[(1, 3), (1, 2), (1, 1), (2, 1), (3, 1), (3, 0), (2, 0), (1, 0), (4, 0)]"
4,15,right,False,2023-09-19 08:43:18.498,2023-09-19 08:43:28.859,10.361,74,left,7000,14000,VH,"[(0, 0), (0, 1), (1, 1), (1, 0), (2, 0), (2, 1), (3, 1), (4, 1), (4, 4)]","[(0, 0), (0, 1), (1, 1), (1, 0), (2, 0), (3, 0), (3, 1), (4, 1), (4, 4)]"
4,16,left,True,2023-09-19 08:45:34.824,2023-09-19 08:45:47.162,12.338,38,left,7000,14000,V,"[(0, 0), (1, 0), (1, 1), (2, 1), (2, 2), (1, 2), (1, 3), (1, 4), (4, 2)]","[(0, 0), (1, 0), (2, 0), (2, 1), (2, 2), (1, 2), (1, 3), (1, 4), (4, 2)]"
4,17,left,True,2023-09-19 08:46:04.200,2023-09-19 08:46:12.538,8.338,4,left,7000,14000,V,"[(4, 3), (4, 2), (3, 2), (3, 3), (2, 3), (2, 2), (1, 2), (1, 3), (4, 4)]","[(4, 3), (4, 2), (3, 2), (3, 3), (2, 3), (2, 2), (1, 2), (0, 2), (4, 4)]"
4,18,left,True,2023-09-19 08:46:29.577,2023-09-19 08:46:40.572,10.995,37,left,7000,14000,V,"[(4, 0), (4, 1), (3, 1), (3, 2), (2, 2), (2, 3), (3, 3), (4, 3), (2, 1)]","[(4, 0), (4, 1), (4, 2), (3, 2), (2, 2), (2, 3), (3, 3), (4, 3), (2, 1)]"
4,19,left,True,2023-09-19 08:46:57.608,2023-09-19 08:47:07.345,9.737,89,left,7000,14000,V,"[(0, 3), (0, 4), (1, 4), (1, 3), (2, 3), (2, 2), (3, 2), (3, 1), (2, 0)]","[(0, 3), (0, 4), (1, 4), (2, 4), (2, 3), (2, 2), (3, 2), (3, 1), (2, 0)]"
4,20,left,True,2023-09-19 08:47:24.383,2023-09-19 08:47:32.312,7.929,58,left,7000,14000,V,"[(0, 1), (0, 0), (1, 0), (1, 1), (2, 1), (2, 0), (3, 0), (4, 0), (2, 3)]","[(0, 1), (0, 0), (1, 0), (1, 1), (2, 1), (3, 1), (3, 0), (4, 0), (2, 3)]"
4,21,right,True,2023-09-19 08:47:49.338,2023-09-19 08:47:58.520,9.182,71,right,7000,14000,VH,"[(0, 1), (1, 1), (1, 2), (2, 2), (2, 1), (3, 1), (3, 0), (4, 0), (0, 4)]","[(0, 1), (1, 1), (1, 2), (2, 2), (3, 2), (3, 1), (3, 0), (4, 0), (0, 4)]"
4,22,right,True,2023-09-19 08:48:15.558,2023-09-19 08:48:28.218,12.66,30,right,7000,14000,VH,"[(1, 4), (0, 4), (0, 3), (1, 3), (1, 2), (0, 2), (0, 1), (0, 0), (4, 0)]","[(1, 4), (0, 4), (0, 3), (1, 3), (1, 2), (0, 2), (0, 1), (0, 0), (3, 0)]"
4,23,left,False,2023-09-19 08:48:45.256,2023-09-19 08:48:57.151,11.895,40,right,7000,14000,VH,"[(0, 0), (1, 0), (1, 1), (0, 1), (0, 2), (1, 2), (1, 3), (0, 3), (4, 3)]","[(0, 0), (1, 0), (1, 1), (0, 1), (0, 2), (1, 2), (1, 3), (0, 3), (3, 3)]"
4,24,right,True,2023-09-19 08:49:14.187,2023-09-19 08:49:19.104,4.917,69,right,7000,14000,VH,"[(3, 4), (2, 4), (2, 3), (1, 3), (1, 2), (2, 2), (2, 1), (3, 1), (0, 2)]","[(3, 4), (2, 4), (1, 4), (1, 3), (1, 2), (2, 2), (2, 1), (3, 1), (0, 2)]"
4,25,left,True,2023-09-19 08:49:36.141,2023-09-19 08:49:47.457,11.316,67,left,7000,14000,VH,"[(0, 2), (0, 3), (1, 3), (1, 2), (2, 2), (2, 1), (1, 1), (1, 0), (0, 4)]","[(0, 2), (0, 3), (1, 3), (2, 3), (2, 2), (2, 1), (1, 1), (1, 0), (0, 4)]"
4,26,left,True,2023-09-19 08:50:04.495,2023-09-19 08:50:14.513,10.018,53,left,7000,14000,H,"[(1, 4), (2, 4), (2, 3), (3, 3), (3, 2), (4, 2), (4, 1), (4, 0), (1, 0)]","[(1, 4), (2, 4), (3, 4), (3, 3), (3, 2), (4, 2), (4, 1), (4, 0), (1, 0)]"
4,27,left,True,2023-09-19 08:50:31.549,2023-09-19 08:50:44.376,12.827,6,left,7000,14000,H,"[(4, 4), (4, 3), (3, 3), (3, 2), (2, 2), (2, 3), (1, 3), (1, 2), (1, 1)]","[(4, 4), (4, 3), (4, 2), (3, 2), (2, 2), (2, 3), (1, 3), (1, 2), (1, 1)]"
4,28,left,True,2023-09-19 08:51:01.414,2023-09-19 08:51:11.517,10.103,72,left,7000,14000,H,"[(4, 1), (4, 2), (3, 2), (3, 1), (2, 1), (2, 2), (1, 2), (0, 2), (0, 1)]","[(4, 1), (4, 2), (3, 2), (3, 1), (2, 1), (1, 1), (1, 2), (0, 2), (0, 1)]"
4,29,right,False,2023-09-19 08:51:28.556,2023-09-19 08:51:43.594,15.038,27,left,7000,14000,H,"[(0, 4), (0, 3), (1, 3), (1, 2), (2, 2), (2, 1), (1, 1), (1, 0), (4, 0)]","[(0, 4), (0, 3), (0, 2), (1, 2), (2, 2), (2, 1), (1, 1), (1, 0), (4, 0)]"
4,30,left,True,2023-09-19 08:52:00.632,2023-09-19 08:52:11.648,11.016,42,left,7000,14000,H,"[(0, 3), (0, 4), (1, 4), (1, 3), (2, 3), (2, 2), (3, 2), (3, 3), (4, 2)]","[(0, 3), (0, 4), (1, 4), (2, 4), (2, 3), (2, 2), (3, 2), (3, 3), (4, 2)]"
4,31,left,True,2023-09-19 08:55:23.631,2023-09-19 08:55:32.335,8.704,13,left,7000,14000,VH,"[(4, 1), (4, 0), (3, 0), (3, 1), (2, 1), (2, 2), (3, 2), (3, 3), (0, 3)]","[(4, 1), (4, 0), (3, 0), (2, 0), (2, 1), (2, 2), (3, 2), (3, 3), (0, 3)]"
4,32,right,True,2023-09-19 08:55:49.372,2023-09-19 08:55:59.477,10.105,32,right,7000,14000,VH,"[(0, 4), (1, 4), (1, 3), (2, 3), (2, 4), (3, 4), (3, 3), (3, 2), (4, 2)]","[(0, 4), (1, 4), (1, 3), (2, 3), (2, 4), (3, 4), (3, 3), (4, 3), (4, 2)]"
4,33,left,True,2023-09-19 08:56:16.504,2023-09-19 08:56:25.732,9.228,43,left,7000,14000,VH,"[(1, 3), (2, 3), (2, 2), (3, 2), (3, 3), (4, 3), (4, 4), (3, 4), (2, 4)]","[(1, 3), (2, 3), (2, 2), (3, 2), (4, 2), (4, 3), (4, 4), (3, 4), (2, 4)]"
4,34,left,True,2023-09-19 08:56:42.770,2023-09-19 08:56:53.018,10.248,41,left,7000,14000,VH,"[(1, 0), (1, 1), (2, 1), (2, 2), (3, 2), (3, 1), (4, 1), (4, 0), (2, 3)]","[(1, 0), (1, 1), (1, 2), (2, 2), (3, 2), (3, 1), (4, 1), (4, 0), (2, 3)]"
4,35,right,True,2023-09-19 08:57:10.056,2023-09-19 08:57:18.651,8.595,56,right,7000,14000,VH,"[(2, 0), (1, 0), (1, 1), (0, 1), (0, 2), (1, 2), (1, 3), (2, 3), (3, 4)]","[(2, 0), (1, 0), (0, 0), (0, 1), (0, 2), (1, 2), (1, 3), (2, 3), (3, 4)]"
4,36,left,False,2023-09-19 08:57:35.688,2023-09-19 08:57:46.338,10.65,55,right,7000,14000,H,"[(3, 4), (4, 4), (4, 3), (3, 3), (3, 2), (4, 2), (4, 1), (4, 0), (2, 2)]","[(3, 4), (4, 4), (4, 3), (3, 3), (3, 2), (3, 1), (4, 1), (4, 0), (2, 2)]"
4,37,right,False,2023-09-19 08:58:03.375,2023-09-19 08:58:16.390,13.015,52,left,7000,14000,H,"[(4, 4), (3, 4), (3, 3), (4, 3), (4, 2), (3, 2), (3, 1), (4, 1), (0, 4)]","[(4, 4), (3, 4), (3, 3), (4, 3), (4, 2), (3, 2), (3, 1), (2, 1), (0, 4)]"
4,38,left,False,2023-09-19 08:58:33.429,2023-09-19 08:58:47.944,14.515,45,right,7000,14000,H,"[(0, 3), (0, 4), (1, 4), (1, 3), (2, 3), (2, 4), (3, 4), (4, 4), (3, 0)]","[(0, 3), (0, 4), (1, 4), (1, 3), (2, 3), (3, 3), (3, 4), (4, 4), (3, 0)]"
4,39,right,True,2023-09-19 08:59:04.982,2023-09-19 08:59:15.609,10.627,22,right,7000,14000,H,"[(4, 0), (3, 0), (3, 1), (2, 1), (2, 0), (1, 0), (1, 1), (1, 2), (3, 4)]","[(4, 0), (3, 0), (3, 1), (2, 1), (2, 0), (1, 0), (1, 1), (0, 1), (3, 4)]"
4,40,right,True,2023-09-19 08:59:32.650,2023-09-19 08:59:48.051,15.401,61,right,7000,14000,H,"[(2, 3), (3, 3), (3, 2), (2, 2), (2, 1), (3, 1), (3, 0), (2, 0), (1, 1)]","[(2, 3), (3, 3), (3, 2), (2, 2), (2, 1), (3, 1), (3, 0), (4, 0), (1, 1)]"
4,41,right,True,2023-09-19 09:00:05.090,2023-09-19 09:00:14.750,9.66,57,right,7000,14000,V,"[(4, 1), (4, 2), (3, 2), (3, 3), (2, 3), (2, 2), (1, 2), (0, 2), (0, 3)]","[(4, 1), (4, 2), (4, 3), (3, 3), (2, 3), (2, 2), (1, 2), (0, 2), (0, 3)]"
4,42,left,False,2023-09-19 09:00:31.788,2023-09-19 09:00:41.727,9.939,60,right,7000,14000,V,"[(3, 1), (3, 2), (4, 2), (4, 3), (3, 3), (3, 4), (2, 4), (2, 3), (0, 3)]","[(3, 1), (3, 2), (4, 2), (4, 3), (3, 3), (3, 4), (2, 4), (2, 3), (1, 3)]"
4,43,right,True,2023-09-19 09:00:58.763,2023-09-19 09:01:09.168,10.405,63,right,7000,14000,V,"[(0, 3), (1, 3), (1, 2), (0, 2), (0, 1), (1, 1), (1, 0), (0, 0), (2, 4)]","[(0, 3), (1, 3), (1, 2), (0, 2), (0, 1), (1, 1), (1, 0), (2, 0), (2, 4)]"
4,44,right,True,2023-09-19 09:01:26.206,2023-09-19 09:01:36.222,10.016,54,right,7000,14000,V,"[(4, 3), (3, 3), (3, 2), (2, 2), (2, 1), (1, 1), (1, 2), (0, 2), (1, 3)]","[(4, 3), (3, 3), (2, 3), (2, 2), (2, 1), (1, 1), (1, 2), (0, 2), (1, 3)]"
4,45,left,True,2023-09-19 09:01:53.260,2023-09-19 09:02:05.142,11.882,73,left,7000,14000,V,"[(4, 2), (4, 1), (3, 1), (3, 2), (2, 2), (2, 1), (1, 1), (1, 2), (1, 4)]","[(4, 2), (4, 1), (3, 1), (3, 2), (2, 2), (2, 1), (1, 1), (0, 1), (1, 4)]"
4,46,left,False,2023-09-19 09:04:50.603,2023-09-19 09:04:59.188,8.585,83,right,7000,14000,H,"[(3, 2), (4, 2), (4, 3), (3, 3), (3, 4), (2, 4), (2, 3), (2, 2), (0, 3)]","[(3, 2), (4, 2), (4, 3), (4, 4), (3, 4), (2, 4), (2, 3), (2, 2), (0, 3)]"
4,47,left,False,2023-09-19 09:05:16.214,2023-09-19 09:05:25.975,9.761,44,right,7000,14000,H,"[(4, 3), (4, 4), (3, 4), (3, 3), (2, 3), (2, 2), (3, 2), (4, 2), (4, 0)]","[(4, 3), (4, 4), (3, 4), (2, 4), (2, 3), (2, 2), (3, 2), (4, 2), (4, 0)]"
4,48,right,True,2023-09-19 09:05:43.013,2023-09-19 09:05:50.494,7.481,2,right,7000,14000,H,"[(4, 1), (4, 2), (3, 2), (3, 1), (2, 1), (2, 2), (1, 2), (1, 1), (4, 3)]","[(4, 1), (4, 2), (3, 2), (3, 1), (2, 1), (2, 2), (1, 2), (0, 2), (4, 3)]"
4,49,right,False,2023-09-19 09:06:07.532,2023-09-19 09:06:18.215,10.683,84,left,7000,14000,H,"[(2, 0), (1, 0), (1, 1), (2, 1), (2, 2), (1, 2), (1, 3), (1, 4), (0, 3)]","[(2, 0), (1, 0), (1, 1), (2, 1), (2, 2), (2, 3), (1, 3), (1, 4), (0, 3)]"
4,50,left,True,2023-09-19 09:06:35.252,2023-09-19 09:06:44.591,9.339,75,left,7000,14000,H,"[(0, 4), (1, 4), (1, 3), (2, 3), (2, 4), (3, 4), (3, 3), (4, 3), (3, 1)]","[(0, 4), (1, 4), (1, 3), (2, 3), (2, 4), (3, 4), (3, 3), (3, 2), (3, 1)]"
4,51,left,True,2023-09-19 09:07:01.628,2023-09-19 09:07:10.100,8.472,21,left,7000,14000,VH,"[(0, 4), (0, 3), (1, 3), (1, 2), (2, 2), (2, 1), (1, 1), (0, 1), (3, 1)]","[(0, 4), (0, 3), (0, 2), (1, 2), (2, 2), (2, 1), (1, 1), (0, 1), (3, 1)]"
4,52,left,True,2023-09-19 09:07:27.138,2023-09-19 09:07:37.567,10.429,47,left,7000,14000,VH,"[(4, 0), (4, 1), (3, 1), (3, 0), (2, 0), (2, 1), (1, 1), (1, 0), (4, 2)]","[(4, 0), (4, 1), (3, 1), (3, 0), (2, 0), (2, 1), (1, 1), (0, 1), (4, 2)]"
4,53,right,True,2023-09-19 09:07:54.602,2023-09-19 09:08:09.663,15.061,70,right,7000,14000,VH,"[(0, 0), (1, 0), (1, 1), (0, 1), (0, 2), (1, 2), (1, 3), (0, 3), (3, 1)]","[(0, 0), (1, 0), (1, 1), (0, 1), (0, 2), (1, 2), (1, 3), (0, 3), (3, 2)]"
4,54,right,True,2023-09-19 09:08:26.702,2023-09-19 09:08:35.396,8.694,33,right,7000,14000,VH,"[(4, 2), (4, 3), (3, 3), (3, 2), (2, 2), (2, 3), (1, 3), (1, 4), (0, 1)]","[(4, 2), (4, 3), (3, 3), (3, 2), (2, 2), (1, 2), (1, 3), (1, 4), (0, 1)]"
4,55,right,True,2023-09-19 09:08:52.432,2023-09-19 09:09:02.937,10.505,5,right,7000,14000,VH,"[(1, 1), (2, 1), (2, 2), (1, 2), (1, 3), (2, 3), (2, 4), (1, 4), (0, 2)]","[(1, 1), (2, 1), (2, 2), (1, 2), (1, 3), (2, 3), (2, 4), (3, 4), (0, 2)]"
4,56,right,True,2023-09-19 09:09:19.965,2023-09-19 09:09:30.724,10.759,76,right,7000,14000,V,"[(1, 3), (2, 3), (2, 2), (3, 2), (3, 1), (2, 1), (2, 0), (3, 0), (1, 4)]","[(1, 3), (2, 3), (3, 3), (3, 2), (3, 1), (2, 1), (2, 0), (3, 0), (1, 4)]"
4,57,right,True,2023-09-19 09:09:47.763,2023-09-19 09:09:52.156,4.393,85,right,7000,14000,V,"[(2, 1), (2, 0), (3, 0), (3, 1), (4, 1), (4, 2), (3, 2), (2, 2), (4, 3)]","[(2, 1), (2, 0), (3, 0), (4, 0), (4, 1), (4, 2), (3, 2), (2, 2), (4, 3)]"
4,58,left,True,2023-09-19 09:10:09.195,2023-09-19 09:10:13.801,4.606,31,left,7000,14000,V,"[(3, 2), (2, 2), (2, 3), (3, 3), (3, 4), (4, 4), (4, 3), (4, 2), (0, 4)]","[(3, 2), (2, 2), (2, 3), (2, 4), (3, 4), (4, 4), (4, 3), (4, 2), (0, 4)]"
4,59,left,True,2023-09-19 09:10:30.837,2023-09-19 09:10:38.354,7.517,36,left,7000,14000,V,"[(2, 3), (2, 4), (1, 4), (1, 3), (0, 3), (0, 2), (1, 2), (2, 2), (2, 0)]","[(2, 3), (2, 4), (1, 4), (0, 4), (0, 3), (0, 2), (1, 2), (2, 2), (2, 0)]"
4,60,left,True,2023-09-19 09:10:55.392,2023-09-19 09:11:11.707,16.315,49,left,7000,14000,V,"[(0, 0), (0, 1), (1, 1), (1, 0), (2, 0), (2, 1), (3, 1), (3, 2), (1, 3)]","[(0, 0), (0, 1), (1, 1), (1, 0), (2, 0), (3, 0), (3, 1), (3, 2), (1, 3)]"
4,61,left,False,2023-09-19 09:14:38.277,2023-09-19 09:14:47.516,9.239,79,right,7000,14000,H,"[(1, 1), (1, 2), (2, 2), (2, 1), (3, 1), (3, 2), (4, 2), (4, 1), (0, 4)]","[(1, 1), (1, 2), (2, 2), (2, 1), (3, 1), (3, 2), (4, 2), (4, 3), (0, 4)]"
4,62,right,True,2023-09-19 09:15:04.552,2023-09-19 09:15:14.557,10.005,88,right,7000,14000,H,"[(3, 4), (4, 4), (4, 3), (3, 3), (3, 2), (2, 2), (2, 1), (3, 1), (0, 3)]","[(3, 4), (4, 4), (4, 3), (4, 2), (3, 2), (2, 2), (2, 1), (3, 1), (0, 3)]"
4,63,left,True,2023-09-19 09:15:31.595,2023-09-19 09:15:41.788,10.193,12,left,7000,14000,H,"[(2, 4), (1, 4), (1, 3), (0, 3), (0, 2), (1, 2), (1, 1), (1, 0), (4, 0)]","[(2, 4), (1, 4), (0, 4), (0, 3), (0, 2), (1, 2), (1, 1), (1, 0), (4, 0)]"
4,64,left,False,2023-09-19 09:15:58.827,2023-09-19 09:16:09.077,10.25,34,right,7000,14000,H,"[(0, 2), (1, 2), (1, 3), (2, 3), (2, 4), (3, 4), (3, 3), (3, 2), (4, 0)]","[(0, 2), (1, 2), (2, 2), (2, 3), (2, 4), (3, 4), (3, 3), (3, 2), (4, 0)]"
4,65,right,True,2023-09-19 09:16:26.103,2023-09-19 09:16:36.592,10.489,11,right,7000,14000,H,"[(1, 0), (1, 1), (2, 1), (2, 2), (1, 2), (1, 3), (0, 3), (0, 2), (4, 3)]","[(1, 0), (1, 1), (2, 1), (2, 2), (2, 3), (1, 3), (0, 3), (0, 2), (4, 3)]"
4,66,left,False,2023-09-19 09:16:53.623,2023-09-19 09:17:02.462,8.839,16,right,7000,14000,V,"[(0, 0), (1, 0), (1, 1), (2, 1), (2, 0), (3, 0), (3, 1), (3, 2), (0, 3)]","[(0, 0), (1, 0), (1, 1), (2, 1), (2, 0), (3, 0), (3, 1), (4, 1), (0, 3)]"
4,67,left,True,2023-09-19 09:17:19.499,2023-09-19 09:17:27.651,8.152,46,left,7000,14000,V,"[(4, 1), (4, 2), (3, 2), (3, 1), (2, 1), (2, 0), (1, 0), (1, 1), (0, 1)]","[(4, 1), (4, 2), (3, 2), (2, 2), (2, 1), (2, 0), (1, 0), (1, 1), (0, 1)]"
4,68,right,True,2023-09-19 09:17:44.686,2023-09-19 09:17:53.547,8.861,90,right,7000,14000,V,"[(4, 0), (4, 1), (3, 1), (3, 2), (2, 2), (2, 3), (1, 3), (0, 3), (3, 3)]","[(4, 0), (4, 1), (3, 1), (3, 2), (2, 2), (2, 3), (1, 3), (0, 3), (3, 4)]"
4,69,left,False,2023-09-19 09:18:10.585,2023-09-19 09:18:18.391,7.806,24,right,7000,14000,V,"[(1, 4), (2, 4), (2, 3), (1, 3), (1, 2), (2, 2), (2, 1), (3, 1), (3, 0)]","[(1, 4), (2, 4), (2, 3), (1, 3), (1, 2), (1, 1), (2, 1), (3, 1), (3, 0)]"
4,70,right,True,2023-09-19 09:18:35.428,2023-09-19 09:18:45.066,9.638,86,right,7000,14000,V,"[(2, 3), (2, 2), (3, 2), (3, 3), (4, 3), (4, 4), (3, 4), (2, 4), (2, 0)]","[(2, 3), (2, 2), (3, 2), (4, 2), (4, 3), (4, 4), (3, 4), (2, 4), (2, 0)]"
4,71,right,True,2023-09-19 09:19:02.103,2023-09-19 09:19:07.966,5.863,14,right,7000,14000,VH,"[(0, 3), (0, 4), (1, 4), (1, 3), (2, 3), (2, 2), (3, 2), (3, 3), (0, 0)]","[(0, 3), (0, 4), (1, 4), (2, 4), (2, 3), (2, 2), (3, 2), (3, 3), (0, 0)]"
4,72,right,True,2023-09-19 09:19:25.003,2023-09-19 09:19:32.652,7.649,65,right,7000,14000,VH,"[(0, 0), (0, 1), (1, 1), (1, 0), (2, 0), (2, 1), (3, 1), (4, 1), (3, 3)]","[(0, 0), (0, 1), (1, 1), (1, 0), (2, 0), (3, 0), (3, 1), (4, 1), (3, 3)]"
4,73,right,True,2023-09-19 09:19:49.689,2023-09-19 09:19:57.260,7.571,64,right,7000,14000,VH,"[(4, 0), (4, 1), (3, 1), (3, 2), (4, 2), (4, 3), (3, 3), (3, 4), (0, 2)]","[(4, 0), (4, 1), (3, 1), (3, 2), (4, 2), (4, 3), (3, 3), (2, 3), (0, 2)]"
4,74,left,True,2023-09-19 09:20:14.299,2023-09-19 09:20:20.105,5.806,18,left,7000,14000,VH,"[(4, 1), (3, 1), (3, 2), (4, 2), (4, 3), (3, 3), (3, 4), (2, 4), (2, 2)]","[(4, 1), (3, 1), (3, 2), (4, 2), (4, 3), (4, 4), (3, 4), (2, 4), (2, 2)]"
4,75,left,True,2023-09-19 09:20:37.142,2023-09-19 09:20:46.546,9.404,66,left,7000,14000,VH,"[(3, 0), (4, 0), (4, 1), (3, 1), (3, 2), (4, 2), (4, 3), (3, 3), (2, 2)]","[(3, 0), (4, 0), (4, 1), (3, 1), (3, 2), (4, 2), (4, 3), (4, 4), (2, 2)]"
4,76,left,True,2023-09-19 09:22:54.889,2023-09-19 09:22:58.771,3.882,23,left,7000,14000,VH,"[(4, 2), (4, 1), (3, 1), (3, 2), (2, 2), (2, 1), (1, 1), (1, 0), (2, 0)]","[(4, 2), (4, 1), (3, 1), (3, 2), (2, 2), (1, 2), (1, 1), (1, 0), (2, 0)]"
4,77,left,True,2023-09-19 09:23:15.809,2023-09-19 09:23:20.047,4.238,29,left,7000,14000,VH,"[(2, 2), (1, 2), (1, 1), (2, 1), (2, 0), (3, 0), (3, 1), (3, 2), (4, 4)]","[(2, 2), (1, 2), (1, 1), (1, 0), (2, 0), (3, 0), (3, 1), (3, 2), (4, 4)]"
4,78,left,True,2023-09-19 09:23:37.087,2023-09-19 09:23:41.423,4.336,51,left,7000,14000,VH,"[(2, 0), (1, 0), (1, 1), (2, 1), (2, 2), (3, 2), (3, 1), (4, 1), (0, 3)]","[(2, 0), (1, 0), (1, 1), (1, 2), (2, 2), (3, 2), (3, 1), (4, 1), (0, 3)]"
4,79,right,True,2023-09-19 09:23:58.462,2023-09-19 09:24:06.178,7.716,81,right,7000,14000,VH,"[(4, 0), (4, 1), (3, 1), (3, 2), (4, 2), (4, 3), (3, 3), (3, 4), (1, 3)]","[(4, 0), (4, 1), (3, 1), (3, 2), (4, 2), (4, 3), (3, 3), (2, 3), (1, 3)]"
4,80,left,True,2023-09-19 09:24:23.217,2023-09-19 09:24:29.366,6.149,15,left,7000,14000,VH,"[(4, 3), (4, 2), (3, 2), (3, 3), (2, 3), (2, 4), (1, 4), (0, 4), (1, 0)]","[(4, 3), (4, 2), (3, 2), (2, 2), (2, 3), (2, 4), (1, 4), (0, 4), (1, 0)]"
4,81,right,True,2023-09-19 09:24:46.403,2023-09-19 09:24:56.476,10.073,62,right,7000,14000,V,"[(1, 0), (2, 0), (2, 1), (3, 1), (3, 2), (2, 2), (2, 3), (2, 4), (0, 1)]","[(1, 0), (2, 0), (3, 0), (3, 1), (3, 2), (2, 2), (2, 3), (2, 4), (0, 1)]"
4,82,left,True,2023-09-19 09:25:13.514,2023-09-19 09:25:17.130,3.616,28,left,7000,14000,V,"[(0, 4), (0, 3), (1, 3), (1, 2), (0, 2), (0, 1), (1, 1), (1, 0), (3, 1)]","[(0, 4), (0, 3), (1, 3), (1, 2), (0, 2), (0, 1), (1, 1), (2, 1), (3, 1)]"
4,83,left,True,2023-09-19 09:25:34.167,2023-09-19 09:25:44.195,10.028,68,left,7000,14000,V,"[(0, 3), (0, 2), (1, 2), (1, 3), (2, 3), (2, 4), (1, 4), (0, 4), (4, 4)]","[(0, 3), (0, 2), (1, 2), (2, 2), (2, 3), (2, 4), (1, 4), (0, 4), (4, 4)]"
4,84,right,True,2023-09-19 09:26:01.232,2023-09-19 09:26:10.481,9.249,10,right,7000,14000,V,"[(4, 2), (4, 3), (3, 3), (3, 2), (2, 2), (2, 3), (1, 3), (0, 3), (4, 0)]","[(4, 2), (4, 3), (3, 3), (3, 2), (2, 2), (2, 3), (1, 3), (0, 3), (4, 1)]"
4,85,left,True,2023-09-19 09:26:27.519,2023-09-19 09:26:37.191,9.672,77,left,7000,14000,V,"[(1, 1), (2, 1), (2, 2), (1, 2), (1, 3), (2, 3), (2, 4), (1, 4), (4, 3)]","[(1, 1), (2, 1), (2, 2), (1, 2), (1, 3), (2, 3), (2, 4), (3, 4), (4, 3)]"
4,86,left,True,2023-09-19 09:26:54.230,2023-09-19 09:27:01.645,7.415,19,left,7000,14000,H,"[(4, 4), (4, 3), (3, 3), (3, 2), (2, 2), (2, 1), (3, 1), (3, 0), (0, 0)]","[(4, 4), (4, 3), (4, 2), (3, 2), (2, 2), (2, 1), (3, 1), (3, 0), (0, 0)]"
4,87,left,True,2023-09-19 09:27:18.683,2023-09-19 09:27:28.542,9.859,50,left,7000,14000,H,"[(4, 4), (4, 3), (3, 3), (3, 2), (2, 2), (2, 3), (1, 3), (1, 4), (0, 3)]","[(4, 4), (4, 3), (3, 3), (3, 2), (2, 2), (2, 3), (1, 3), (1, 4), (0, 4)]"
4,88,right,True,2023-09-19 09:27:45.581,2023-09-19 09:27:56.208,10.627,25,right,7000,14000,H,"[(0, 3), (0, 2), (1, 2), (1, 3), (2, 3), (2, 2), (3, 2), (3, 1), (0, 0)]","[(0, 3), (0, 2), (1, 2), (1, 3), (2, 3), (3, 3), (3, 2), (3, 1), (0, 0)]"
4,89,right,True,2023-09-19 09:28:13.246,2023-09-19 09:28:25.161,11.915,39,right,7000,14000,H,"[(4, 0), (4, 1), (3, 1), (3, 0), (2, 0), (2, 1), (1, 1), (0, 1), (1, 3)]","[(4, 0), (4, 1), (3, 1), (3, 0), (2, 0), (1, 0), (1, 1), (0, 1), (1, 3)]"
4,90,left,True,2023-09-19 09:28:42.201,2023-09-19 09:28:51.781,9.58,1,left,7000,14000,H,"[(4, 2), (4, 3), (3, 3), (3, 2), (2, 2), (2, 1), (1, 1), (1, 0), (0, 1)]","[(4, 2), (4, 3), (3, 3), (2, 3), (2, 2), (2, 1), (1, 1), (1, 0), (0, 1)]"
5,1,left,True,2023-09-19 10:54:47.266,2023-09-19 10:54:56.549,9.283,59,left,7000,14000,H,"[(0, 4), (0, 3), (1, 3), (1, 4), (2, 4), (2, 3), (3, 3), (3, 2), (2, 1)]","[(0, 4), (0, 3), (1, 3), (1, 4), (2, 4), (3, 4), (3, 3), (3, 2), (2, 1)]"
5,2,right,True,2023-09-19 10:55:13.587,2023-09-19 10:55:25.792,12.205,82,right,7000,14000,H,"[(1, 0), (1, 1), (2, 1), (2, 0), (3, 0), (3, 1), (4, 1), (4, 0), (0, 3)]","[(1, 0), (1, 1), (2, 1), (2, 0), (3, 0), (3, 1), (4, 1), (4, 2), (0, 3)]"
5,3,right,False,2023-09-19 10:55:42.829,2023-09-19 10:55:54.357,11.528,80,left,7000,14000,H,"[(4, 4), (4, 3), (3, 3), (3, 4), (2, 4), (2, 3), (1, 3), (1, 2), (0, 1)]","[(4, 4), (4, 3), (3, 3), (3, 4), (2, 4), (2, 3), (1, 3), (1, 2), (0, 2)]"
5,4,left,False,2023-09-19 10:56:11.394,2023-09-19 10:56:27.197,15.803,35,right,7000,14000,H,"[(4, 4), (4, 3), (3, 3), (3, 4), (2, 4), (2, 3), (1, 3), (0, 3), (1, 2)]","[(4, 4), (4, 3), (3, 3), (3, 4), (2, 4), (1, 4), (1, 3), (0, 3), (1, 2)]"
5,5,left,False,2023-09-19 10:56:44.235,2023-09-19 10:56:58.998,14.763,20,right,7000,14000,H,"[(0, 1), (0, 2), (1, 2), (1, 3), (2, 3), (2, 2), (3, 2), (4, 2), (0, 0)]","[(0, 1), (0, 2), (1, 2), (1, 3), (2, 3), (2, 2), (3, 2), (4, 2), (1, 0)]"
5,6,left,True,2023-09-19 10:57:16.032,2023-09-19 10:57:19.727,3.695,8,left,7000,14000,V,"[(1, 4), (2, 4), (2, 3), (1, 3), (1, 2), (0, 2), (0, 3), (0, 4), (1, 0)]","[(1, 4), (2, 4), (2, 3), (2, 2), (1, 2), (0, 2), (0, 3), (0, 4), (1, 0)]"
5,7,left,True,2023-09-19 10:57:36.766,2023-09-19 10:57:43.760,6.994,48,left,7000,14000,V,"[(2, 3), (2, 4), (3, 4), (3, 3), (4, 3), (4, 2), (3, 2), (2, 2), (0, 1)]","[(2, 3), (2, 4), (3, 4), (4, 4), (4, 3), (4, 2), (3, 2), (2, 2), (0, 1)]"
5,8,right,True,2023-09-19 10:58:00.798,2023-09-19 10:58:09.158,8.36,17,right,7000,14000,V,"[(1, 0), (2, 0), (2, 1), (1, 1), (1, 2), (2, 2), (2, 3), (3, 3), (0, 1)]","[(1, 0), (2, 0), (2, 1), (1, 1), (1, 2), (1, 3), (2, 3), (3, 3), (0, 1)]"
5,9,left,True,2023-09-19 10:58:26.185,2023-09-19 10:58:30.367,4.182,9,left,7000,14000,V,"[(3, 2), (4, 2), (4, 1), (3, 1), (3, 0), (2, 0), (2, 1), (2, 2), (3, 3)]","[(3, 2), (4, 2), (4, 1), (4, 0), (3, 0), (2, 0), (2, 1), (2, 2), (3, 3)]"
5,10,right,True,2023-09-19 10:58:47.405,2023-09-19 10:59:02.166,14.761,7,right,7000,14000,V,"[(1, 4), (1, 3), (2, 3), (2, 2), (3, 2), (3, 1), (2, 1), (1, 1), (2, 0)]","[(1, 4), (1, 3), (1, 2), (2, 2), (3, 2), (3, 1), (2, 1), (1, 1), (2, 0)]"
5,11,left,False,2023-09-19 10:59:19.202,2023-09-19 10:59:22.863,3.661,87,right,7000,14000,VH,"[(4, 1), (4, 2), (3, 2), (3, 1), (2, 1), (2, 2), (1, 2), (1, 1), (2, 0)]","[(4, 1), (4, 2), (3, 2), (3, 1), (2, 1), (2, 2), (1, 2), (0, 2), (2, 0)]"
5,12,right,False,2023-09-19 10:59:39.902,2023-09-19 10:59:55.150,15.248,40,left,7000,14000,VH,"[(0, 0), (1, 0), (1, 1), (0, 1), (0, 2), (1, 2), (1, 3), (0, 3), (4, 3)]","[(0, 0), (1, 0), (1, 1), (0, 1), (0, 2), (1, 2), (1, 3), (0, 3), (3, 3)]"
5,13,left,True,2023-09-19 11:00:12.188,2023-09-19 11:00:16.483,4.295,3,left,7000,14000,VH,"[(3, 4), (3, 3), (2, 3), (2, 4), (1, 4), (1, 3), (0, 3), (0, 2), (3, 2)]","[(3, 4), (3, 3), (2, 3), (2, 4), (1, 4), (0, 4), (0, 3), (0, 2), (3, 2)]"
5,14,right,True,2023-09-19 11:00:33.521,2023-09-19 11:00:40.582,7.061,78,right,7000,14000,VH,"[(3, 2), (4, 2), (4, 3), (3, 3), (3, 4), (2, 4), (2, 3), (1, 3), (1, 1)]","[(3, 2), (4, 2), (4, 3), (4, 4), (3, 4), (2, 4), (2, 3), (1, 3), (1, 1)]"
5,15,left,True,2023-09-19 11:00:57.619,2023-09-19 11:01:06.623,9.004,26,left,7000,14000,VH,"[(1, 3), (1, 2), (2, 2), (2, 1), (3, 1), (3, 0), (2, 0), (1, 0), (4, 0)]","[(1, 3), (1, 2), (1, 1), (2, 1), (3, 1), (3, 0), (2, 0), (1, 0), (4, 0)]"
5,16,right,True,2023-09-19 11:04:26.684,2023-09-19 11:04:34.579,7.895,74,right,7000,14000,VH,"[(0, 0), (0, 1), (1, 1), (1, 0), (2, 0), (2, 1), (3, 1), (4, 1), (4, 4)]","[(0, 0), (0, 1), (1, 1), (1, 0), (2, 0), (3, 0), (3, 1), (4, 1), (4, 4)]"
5,17,left,True,2023-09-19 11:04:51.616,2023-09-19 11:04:55.287,3.671,38,left,7000,14000,VH,"[(0, 0), (1, 0), (1, 1), (2, 1), (2, 2), (1, 2), (1, 3), (1, 4), (4, 2)]","[(0, 0), (1, 0), (2, 0), (2, 1), (2, 2), (1, 2), (1, 3), (1, 4), (4, 2)]"
5,18,left,False,2023-09-19 11:05:12.324,2023-09-19 11:05:21.773,9.449,4,right,7000,14000,VH,"[(4, 3), (4, 2), (3, 2), (3, 3), (2, 3), (2, 2), (1, 2), (1, 3), (4, 4)]","[(4, 3), (4, 2), (3, 2), (3, 3), (2, 3), (2, 2), (1, 2), (0, 2), (4, 4)]"
5,19,right,True,2023-09-19 11:05:38.814,2023-09-19 11:05:42.583,3.769,37,right,7000,14000,VH,"[(4, 0), (4, 1), (3, 1), (3, 2), (2, 2), (2, 3), (3, 3), (4, 3), (2, 1)]","[(4, 0), (4, 1), (4, 2), (3, 2), (2, 2), (2, 3), (3, 3), (4, 3), (2, 1)]"
5,20,left,True,2023-09-19 11:05:59.621,2023-09-19 11:06:10.515,10.894,89,left,7000,14000,VH,"[(0, 3), (0, 4), (1, 4), (1, 3), (2, 3), (2, 2), (3, 2), (3, 1), (2, 0)]","[(0, 3), (0, 4), (1, 4), (2, 4), (2, 3), (2, 2), (3, 2), (3, 1), (2, 0)]"
5,21,right,False,2023-09-19 11:06:27.553,2023-09-19 11:06:36.236,8.683,58,left,7000,14000,V,"[(0, 1), (0, 0), (1, 0), (1, 1), (2, 1), (2, 0), (3, 0), (4, 0), (2, 3)]","[(0, 1), (0, 0), (1, 0), (1, 1), (2, 1), (3, 1), (3, 0), (4, 0), (2, 3)]"
5,22,left,True,2023-09-19 11:06:53.274,2023-09-19 11:07:03.901,10.627,60,left,7000,14000,V,"[(3, 1), (3, 2), (4, 2), (4, 3), (3, 3), (3, 4), (2, 4), (2, 3), (0, 3)]","[(3, 1), (3, 2), (4, 2), (4, 3), (3, 3), (3, 4), (2, 4), (2, 3), (1, 3)]"
5,23,left,True,2023-09-19 11:07:20.938,2023-09-19 11:07:35.899,14.961,71,left,7000,14000,V,"[(0, 1), (1, 1), (1, 2), (2, 2), (2, 1), (3, 1), (3, 0), (4, 0), (0, 4)]","[(0, 1), (1, 1), (1, 2), (2, 2), (3, 2), (3, 1), (3, 0), (4, 0), (0, 4)]"
5,24,right,True,2023-09-19 11:07:52.937,2023-09-19 11:07:58.932,5.995,90,right,7000,14000,V,"[(4, 0), (4, 1), (3, 1), (3, 2), (2, 2), (2, 3), (1, 3), (0, 3), (3, 3)]","[(4, 0), (4, 1), (3, 1), (3, 2), (2, 2), (2, 3), (1, 3), (0, 3), (3, 4)]"
5,25,left,False,2023-09-19 11:08:15.968,2023-09-19 11:08:22.284,6.316,69,right,7000,14000,V,"[(3, 4), (2, 4), (2, 3), (1, 3), (1, 2), (2, 2), (2, 1), (3, 1), (0, 2)]","[(3, 4), (2, 4), (1, 4), (1, 3), (1, 2), (2, 2), (2, 1), (3, 1), (0, 2)]"
5,26,right,False,2023-09-19 11:08:39.323,2023-09-19 11:08:47.651,8.328,67,left,7000,14000,H,"[(0, 2), (0, 3), (1, 3), (1, 2), (2, 2), (2, 1), (1, 1), (1, 0), (0, 4)]","[(0, 2), (0, 3), (1, 3), (2, 3), (2, 2), (2, 1), (1, 1), (1, 0), (0, 4)]"
5,27,left,False,2023-09-19 11:09:04.687,2023-09-19 11:09:11.772,7.085,53,right,7000,14000,H,"[(1, 4), (2, 4), (2, 3), (3, 3), (3, 2), (4, 2), (4, 1), (4, 0), (1, 0)]","[(1, 4), (2, 4), (3, 4), (3, 3), (3, 2), (4, 2), (4, 1), (4, 0), (1, 0)]"
5,28,left,True,2023-09-19 11:09:28.807,2023-09-19 11:09:37.380,8.573,50,left,7000,14000,H,"[(4, 4), (4, 3), (3, 3), (3, 2), (2, 2), (2, 3), (1, 3), (1, 4), (0, 3)]","[(4, 4), (4, 3), (3, 3), (3, 2), (2, 2), (2, 3), (1, 3), (1, 4), (0, 4)]"
5,29,left,False,2023-09-19 11:09:54.418,2023-09-19 11:10:10.622,16.204,6,right,7000,14000,H,"[(4, 4), (4, 3), (3, 3), (3, 2), (2, 2), (2, 3), (1, 3), (1, 2), (1, 1)]","[(4, 4), (4, 3), (4, 2), (3, 2), (2, 2), (2, 3), (1, 3), (1, 2), (1, 1)]"
5,30,left,True,2023-09-19 11:10:27.661,2023-09-19 11:10:35.098,7.437,72,left,7000,14000,H,"[(4, 1), (4, 2), (3, 2), (3, 1), (2, 1), (2, 2), (1, 2), (0, 2), (0, 1)]","[(4, 1), (4, 2), (3, 2), (3, 1), (2, 1), (1, 1), (1, 2), (0, 2), (0, 1)]"
5,31,left,False,2023-09-19 11:12:19.454,2023-09-19 11:12:30.115,10.661,27,right,7000,14000,H,"[(0, 4), (0, 3), (1, 3), (1, 2), (2, 2), (2, 1), (1, 1), (1, 0), (4, 0)]","[(0, 4), (0, 3), (0, 2), (1, 2), (2, 2), (2, 1), (1, 1), (1, 0), (4, 0)]"
5,32,right,True,2023-09-19 11:12:47.151,2023-09-19 11:12:54.212,7.061,42,right,7000,14000,H,"[(0, 3), (0, 4), (1, 4), (1, 3), (2, 3), (2, 2), (3, 2), (3, 3), (4, 2)]","[(0, 3), (0, 4), (1, 4), (2, 4), (2, 3), (2, 2), (3, 2), (3, 3), (4, 2)]"
5,33,right,False,2023-09-19 11:13:11.250,2023-09-19 11:13:15.945,4.695,13,left,7000,14000,H,"[(4, 1), (4, 0), (3, 0), (3, 1), (2, 1), (2, 2), (3, 2), (3, 3), (0, 3)]","[(4, 1), (4, 0), (3, 0), (2, 0), (2, 1), (2, 2), (3, 2), (3, 3), (0, 3)]"
5,34,right,True,2023-09-19 11:13:32.982,2023-09-19 11:13:42.541,9.559,32,right,7000,14000,H,"[(0, 4), (1, 4), (1, 3), (2, 3), (2, 4), (3, 4), (3, 3), (3, 2), (4, 2)]","[(0, 4), (1, 4), (1, 3), (2, 3), (2, 4), (3, 4), (3, 3), (4, 3), (4, 2)]"
5,35,right,False,2023-09-19 11:13:59.569,2023-09-19 11:14:07.651,8.082,43,left,7000,14000,H,"[(1, 3), (2, 3), (2, 2), (3, 2), (3, 3), (4, 3), (4, 4), (3, 4), (2, 4)]","[(1, 3), (2, 3), (2, 2), (3, 2), (4, 2), (4, 3), (4, 4), (3, 4), (2, 4)]"
5,36,left,True,2023-09-19 11:14:24.689,2023-09-19 11:14:30.528,5.839,41,left,7000,14000,V,"[(1, 0), (1, 1), (2, 1), (2, 2), (3, 2), (3, 1), (4, 1), (4, 0), (2, 3)]","[(1, 0), (1, 1), (1, 2), (2, 2), (3, 2), (3, 1), (4, 1), (4, 0), (2, 3)]"
5,37,left,True,2023-09-19 11:14:47.564,2023-09-19 11:14:58.191,10.627,56,left,7000,14000,V,"[(2, 0), (1, 0), (1, 1), (0, 1), (0, 2), (1, 2), (1, 3), (2, 3), (3, 4)]","[(2, 0), (1, 0), (0, 0), (0, 1), (0, 2), (1, 2), (1, 3), (2, 3), (3, 4)]"
5,38,right,True,2023-09-19 11:15:15.230,2023-09-19 11:15:21.391,6.161,55,right,7000,14000,V,"[(3, 4), (4, 4), (4, 3), (3, 3), (3, 2), (4, 2), (4, 1), (4, 0), (2, 2)]","[(3, 4), (4, 4), (4, 3), (3, 3), (3, 2), (3, 1), (4, 1), (4, 0), (2, 2)]"
5,39,right,True,2023-09-19 11:15:38.428,2023-09-19 11:15:49.700,11.272,10,right,7000,14000,V,"[(4, 2), (4, 3), (3, 3), (3, 2), (2, 2), (2, 3), (1, 3), (0, 3), (4, 0)]","[(4, 2), (4, 3), (3, 3), (3, 2), (2, 2), (2, 3), (1, 3), (0, 3), (4, 1)]"
5,40,left,False,2023-09-19 11:16:06.736,2023-09-19 11:16:19.175,12.439,52,right,7000,14000,V,"[(4, 4), (3, 4), (3, 3), (4, 3), (4, 2), (3, 2), (3, 1), (4, 1), (0, 4)]","[(4, 4), (3, 4), (3, 3), (4, 3), (4, 2), (3, 2), (3, 1), (2, 1), (0, 4)]"
5,41,left,True,2023-09-19 11:16:36.213,2023-09-19 11:16:40.365,4.152,45,left,7000,14000,VH,"[(0, 3), (0, 4), (1, 4), (1, 3), (2, 3), (2, 4), (3, 4), (4, 4), (3, 0)]","[(0, 3), (0, 4), (1, 4), (1, 3), (2, 3), (3, 3), (3, 4), (4, 4), (3, 0)]"
5,42,left,True,2023-09-19 11:16:57.400,2023-09-19 11:17:10.527,13.127,70,left,7000,14000,VH,"[(0, 0), (1, 0), (1, 1), (0, 1), (0, 2), (1, 2), (1, 3), (0, 3), (3, 1)]","[(0, 0), (1, 0), (1, 1), (0, 1), (0, 2), (1, 2), (1, 3), (0, 3), (3, 2)]"
5,43,left,False,2023-09-19 11:17:27.566,2023-09-19 11:17:42.515,14.949,22,right,7000,14000,VH,"[(4, 0), (3, 0), (3, 1), (2, 1), (2, 0), (1, 0), (1, 1), (1, 2), (3, 4)]","[(4, 0), (3, 0), (3, 1), (2, 1), (2, 0), (1, 0), (1, 1), (0, 1), (3, 4)]"
5,44,right,True,2023-09-19 11:17:59.551,2023-09-19 11:18:05.291,5.74,61,right,7000,14000,VH,"[(2, 3), (3, 3), (3, 2), (2, 2), (2, 1), (3, 1), (3, 0), (2, 0), (1, 1)]","[(2, 3), (3, 3), (3, 2), (2, 2), (2, 1), (3, 1), (3, 0), (4, 0), (1, 1)]"
5,45,right,True,2023-09-19 11:18:22.329,2023-09-19 11:18:27.046,4.717,57,right,7000,14000,VH,"[(4, 1), (4, 2), (3, 2), (3, 3), (2, 3), (2, 2), (1, 2), (0, 2), (0, 3)]","[(4, 1), (4, 2), (4, 3), (3, 3), (2, 3), (2, 2), (1, 2), (0, 2), (0, 3)]"
5,46,left,True,2023-09-19 11:22:41.334,2023-09-19 11:22:46.428,5.094,63,left,7000,14000,VH,"[(0, 3), (1, 3), (1, 2), (0, 2), (0, 1), (1, 1), (1, 0), (0, 0), (2, 4)]","[(0, 3), (1, 3), (1, 2), (0, 2), (0, 1), (1, 1), (1, 0), (2, 0), (2, 4)]"
5,47,right,True,2023-09-19 11:23:03.467,2023-09-19 11:23:07.072,3.605,54,right,7000,14000,VH,"[(4, 3), (3, 3), (3, 2), (2, 2), (2, 1), (1, 1), (1, 2), (0, 2), (1, 3)]","[(4, 3), (3, 3), (2, 3), (2, 2), (2, 1), (1, 1), (1, 2), (0, 2), (1, 3)]"
5,48,left,True,2023-09-19 11:23:24.110,2023-09-19 11:23:31.115,7.005,73,left,7000,14000,VH,"[(4, 2), (4, 1), (3, 1), (3, 2), (2, 2), (2, 1), (1, 1), (1, 2), (1, 4)]","[(4, 2), (4, 1), (3, 1), (3, 2), (2, 2), (2, 1), (1, 1), (0, 1), (1, 4)]"
5,49,right,True,2023-09-19 11:23:48.152,2023-09-19 11:23:51.368,3.216,83,right,7000,14000,VH,"[(3, 2), (4, 2), (4, 3), (3, 3), (3, 4), (2, 4), (2, 3), (2, 2), (0, 3)]","[(3, 2), (4, 2), (4, 3), (4, 4), (3, 4), (2, 4), (2, 3), (2, 2), (0, 3)]"
5,50,right,True,2023-09-19 11:24:08.406,2023-09-19 11:24:16.789,8.383,44,right,7000,14000,VH,"[(4, 3), (4, 4), (3, 4), (3, 3), (2, 3), (2, 2), (3, 2), (4, 2), (4, 0)]","[(4, 3), (4, 4), (3, 4), (2, 4), (2, 3), (2, 2), (3, 2), (4, 2), (4, 0)]"
5,51,left,True,2023-09-19 11:24:33.826,2023-09-19 11:24:45.754,11.928,2,left,7000,14000,H,"[(4, 1), (4, 2), (3, 2), (3, 1), (2, 1), (2, 2), (1, 2), (1, 1), (4, 3)]","[(4, 1), (4, 2), (3, 2), (3, 1), (2, 1), (2, 2), (1, 2), (0, 2), (4, 3)]"
